SpectraSuite Data File
++++++++++++++++++++++++++++++++++++
Date: Tue Sep 13 12:48:55 EDT 2022
User: Laboratoire
Dark Spectrum Present: No
Reference Spectrum Present: No
Number of Sampled Component Spectra: 1
Spectrometers: FLMT00174
Integration Time (usec): 12000 (FLMT00174)
Spectra Averaged: 25 (FLMT00174)
Boxcar Smoothing: 0 (FLMT00174)
Correct for Electrical Dark: No (FLMT00174)
Strobe/Lamp Enabled: No (FLMT00174)
Correct for Detector Non-linearity: No (FLMT00174)
Correct for Stray Light: No (FLMT00174)
Number of Pixels in Processed Spectrum: 3648
>>>>>Begin Processed Spectral Data<<<<<
345.74	3134.29
345.96	3134.29
346.18	3134.29
346.39	3128.56
346.61	3185.74
346.83	3189.67
347.05	3185.33
347.27	3183.53
347.49	3170.83
347.71	3178.53
347.93	3178.86
348.15	3173.86
348.36	3174.92
348.58	3188.77
348.80	3175.17
349.02	3178.37
349.24	3193.85
349.46	3298.70
349.68	3348.18
349.90	3344.82
350.11	3320.82
350.33	3327.87
350.55	3327.38
350.77	3336.14
350.99	3315.25
351.21	3344.74
351.43	3318.28
351.65	3343.27
351.86	3321.72
352.08	3339.91
352.30	3310.83
352.52	3343.51
352.74	3315.33
352.96	3324.67
353.18	3316.89
353.39	3343.68
353.61	3330.00
353.83	3363.09
354.05	3348.84
354.27	3368.99
354.49	3336.47
354.70	3350.72
354.92	3314.76
355.14	3327.21
355.36	3329.59
355.58	3332.54
355.80	3340.16
356.02	3351.46
356.23	3343.10
356.45	3342.78
356.67	3333.36
356.89	3343.27
357.11	3340.16
357.33	3355.39
357.54	3328.19
357.76	3339.58
357.98	3303.05
358.20	3338.68
358.42	3331.55
358.63	3337.04
358.85	3334.99
359.07	3348.02
359.29	3324.18
359.51	3330.73
359.73	3325.25
359.94	3336.14
360.16	3339.66
360.38	3346.14
360.60	3349.49
360.82	3355.47
361.03	3355.47
361.25	3329.18
361.47	3347.61
361.69	3350.31
361.91	3343.43
362.12	3336.47
362.34	3348.02
362.56	3362.36
362.78	3342.86
363.00	3346.05
363.21	3351.30
363.43	3371.86
363.65	3328.44
363.87	3362.68
364.09	3366.61
364.30	3362.44
364.52	3322.13
364.74	3365.55
364.96	3356.78
365.17	3364.16
365.39	3358.59
365.61	3354.49
365.83	3361.29
366.05	3357.19
366.26	3343.92
366.48	3359.41
366.70	3369.48
366.92	3348.18
367.13	3364.40
367.35	3367.43
367.57	3352.28
367.79	3368.50
368.01	3359.08
368.22	3388.16
368.44	3360.55
368.66	3365.47
368.88	3375.54
369.09	3376.45
369.31	3386.60
369.53	3360.55
369.75	3360.23
369.96	3351.05
370.18	3360.23
370.40	3384.88
370.62	3382.34
370.83	3365.80
371.05	3381.85
371.27	3396.27
371.49	3363.42
371.70	3394.22
371.92	3356.29
372.14	3390.04
372.36	3377.02
372.57	3387.50
372.79	3383.08
373.01	3379.80
373.22	3393.65
373.44	3393.57
373.66	3398.97
373.88	3409.62
374.09	3384.88
374.31	3409.05
374.53	3395.53
374.75	3417.49
374.96	3398.65
375.18	3432.15
375.40	3395.53
375.61	3401.76
375.83	3418.55
376.05	3414.87
376.27	3412.98
376.48	3403.48
376.70	3420.11
376.92	3417.57
377.13	3399.79
377.35	3435.10
377.57	3431.17
377.79	3435.18
378.00	3427.07
378.22	3453.69
378.44	3411.26
378.65	3468.19
378.87	3457.30
379.09	3451.81
379.30	3435.67
379.52	3438.62
379.74	3425.60
379.96	3444.11
380.17	3438.62
380.39	3450.25
380.61	3448.45
380.82	3448.12
381.04	3470.98
381.26	3473.85
381.47	3478.60
381.69	3494.65
381.91	3460.00
382.12	3482.28
382.34	3486.13
382.56	3477.61
382.77	3464.67
382.99	3488.51
383.21	3471.23
383.42	3499.41
383.64	3467.78
383.86	3489.66
384.07	3499.00
384.29	3489.90
384.51	3481.38
384.72	3494.41
384.94	3475.16
385.16	3490.80
385.37	3484.58
385.59	3477.45
385.81	3522.59
386.02	3512.35
386.24	3520.38
386.46	3499.16
386.67	3532.09
386.89	3531.60
387.11	3533.81
387.32	3524.88
387.54	3544.05
387.76	3559.45
387.97	3572.15
388.19	3566.25
388.40	3555.19
388.62	3556.01
388.84	3565.84
389.05	3571.33
389.27	3573.71
389.49	3600.66
389.70	3588.04
389.92	3592.87
390.14	3610.98
390.35	3631.95
390.57	3595.09
390.78	3645.14
391.00	3635.72
391.22	3631.62
391.43	3648.09
391.65	3662.83
391.86	3678.07
392.08	3687.82
392.30	3696.50
392.51	3695.44
392.73	3729.84
392.95	3691.50
393.16	3709.44
393.38	3744.10
393.59	3735.74
393.81	3758.84
394.03	3756.63
394.24	3770.31
394.46	3759.25
394.67	3789.23
394.89	3773.67
395.11	3798.74
395.32	3802.26
395.54	3825.20
395.75	3808.40
395.97	3817.58
396.19	3821.84
396.40	3826.34
396.62	3859.93
396.83	3828.64
397.05	3847.31
397.26	3865.25
397.48	3868.94
397.70	3863.86
397.91	3890.89
398.13	3861.16
398.34	3875.41
398.56	3911.37
398.78	3877.62
398.99	3936.36
399.21	3884.51
399.42	3916.04
399.64	3875.99
399.85	3907.20
400.07	3906.30
400.29	3935.13
400.50	3906.38
400.72	3912.85
400.93	3904.49
401.15	3922.68
401.36	3921.04
401.58	3949.22
401.79	3927.18
402.01	3962.00
402.23	3927.84
402.44	3962.57
402.66	3954.14
402.87	3970.19
403.09	3941.52
403.30	3965.69
403.52	3951.51
403.73	3956.35
403.95	3966.83
404.16	3982.15
404.38	3971.01
404.60	3988.21
404.81	4001.16
405.03	4001.08
405.24	4026.80
405.46	4005.66
405.67	4005.99
405.89	4053.91
406.10	4020.57
406.32	4045.15
406.53	4052.27
406.75	4094.79
406.96	4088.97
407.18	4066.12
407.39	4096.92
407.61	4105.52
407.82	4104.70
408.04	4142.88
408.25	4140.01
408.47	4152.87
408.68	4182.77
408.90	4167.04
409.12	4197.11
409.33	4213.49
409.55	4206.86
409.76	4225.45
409.98	4227.25
410.19	4241.51
410.41	4271.74
410.62	4300.16
410.84	4287.30
411.05	4316.46
411.27	4364.79
411.48	4361.52
411.70	4346.69
411.91	4376.84
412.12	4409.52
412.34	4385.11
412.55	4415.01
412.77	4431.07
412.98	4478.91
413.20	4492.59
413.41	4492.01
413.63	4489.48
413.84	4513.56
414.06	4550.83
414.27	4573.69
414.49	4609.08
414.70	4579.91
414.92	4622.59
415.13	4613.42
415.35	4637.75
415.56	4652.25
415.78	4677.89
415.99	4680.26
416.21	4678.22
416.42	4722.04
416.63	4761.86
416.85	4756.69
417.06	4741.87
417.28	4694.44
417.49	4824.11
417.71	4787.09
417.92	4774.31
418.14	4797.49
418.35	4836.89
418.57	4841.56
418.78	4858.93
418.99	4836.81
419.21	4864.34
419.42	4886.86
419.64	4871.46
419.85	4857.70
420.07	4937.24
420.28	4900.54
420.50	4882.28
420.71	4907.18
420.92	4896.20
421.14	4924.87
421.35	4919.06
421.57	4938.72
421.78	4923.64
422.00	4942.90
422.21	4933.56
422.42	4960.18
422.64	4928.97
422.85	4945.52
423.07	4981.64
423.28	4967.96
423.50	4967.55
423.71	4996.31
423.92	5030.30
424.14	4994.83
424.35	4980.25
424.57	5009.90
424.78	5007.12
424.99	5013.67
425.21	5016.54
425.42	5033.83
425.64	5030.06
425.85	5004.74
426.06	4996.80
426.28	5015.64
426.49	5077.57
426.71	5027.44
426.92	5058.89
427.13	5064.54
427.35	5112.88
427.56	5122.22
427.78	5081.75
427.99	5125.49
428.20	5138.03
428.42	5141.47
428.63	5177.18
428.84	5088.38
429.06	5134.99
429.27	5168.50
429.49	5188.73
429.70	5221.66
429.91	5180.95
430.13	5253.61
430.34	5225.92
430.56	5262.13
430.77	5305.71
430.98	5270.82
431.20	5313.17
431.41	5347.00
431.62	5336.84
431.84	5310.06
432.05	5349.70
432.26	5352.16
432.48	5349.29
432.69	5436.46
432.91	5432.44
433.12	5435.88
433.33	5462.59
433.55	5539.84
433.76	5575.96
433.97	5503.96
434.19	5525.99
434.40	5605.70
434.61	5635.35
434.83	5652.07
435.04	5596.53
435.25	5662.31
435.47	5706.62
435.68	5674.84
435.89	5776.50
436.11	5756.43
436.32	5803.78
436.53	5825.90
436.75	5810.25
436.96	5833.84
437.17	5832.86
437.39	5864.48
437.60	5893.56
437.81	5916.42
438.03	5949.51
438.24	5967.37
438.45	6070.83
438.67	6022.91
438.88	6074.03
439.09	6139.56
439.31	6146.53
439.52	6157.42
439.73	6166.84
439.94	6148.74
440.16	6228.77
440.37	6187.65
440.58	6296.11
440.80	6309.55
441.01	6291.36
441.22	6441.52
441.44	6428.25
441.65	6423.66
441.86	6431.36
442.08	6465.19
442.29	6476.25
442.50	6530.89
442.71	6484.36
442.93	6569.47
443.14	6552.60
443.35	6607.40
443.57	6559.56
443.78	6640.42
443.99	6668.92
444.20	6632.63
444.42	6718.07
444.63	6719.22
444.84	6765.59
445.06	6845.95
445.27	6734.46
445.48	6748.47
445.69	6831.04
445.91	6825.88
446.12	6763.62
446.33	6834.24
446.54	6949.33
446.76	6865.36
446.97	6896.25
447.18	6879.13
447.39	6956.05
447.61	6984.06
447.82	6989.39
448.03	6932.29
448.25	7013.31
448.46	7078.60
448.67	7064.92
448.88	6987.67
449.10	7056.32
449.31	7081.88
449.52	7052.14
449.73	7085.40
449.95	7181.65
450.16	7090.81
450.37	7209.18
450.58	7322.88
450.79	7088.84
451.01	7192.38
451.22	7102.27
451.43	7174.94
451.64	7218.93
451.86	7205.16
452.07	7214.67
452.28	7276.68
452.49	7319.28
452.71	7193.45
452.92	7202.71
453.13	7264.15
453.34	7224.82
453.55	7302.48
453.77	7331.07
453.98	7329.52
454.19	7247.93
454.40	7317.56
454.62	7330.75
454.83	7305.68
455.04	7421.43
455.25	7286.18
455.46	7510.64
455.68	7349.50
455.89	7333.61
456.10	7387.51
456.31	7393.33
456.52	7406.44
456.74	7418.15
456.95	7525.96
457.16	7450.43
457.37	7497.12
457.58	7485.16
457.80	7461.90
458.01	7442.40
458.22	7678.41
458.43	7516.78
458.64	7571.59
458.86	7441.17
459.07	7544.80
459.28	7523.99
459.49	7602.63
459.70	7766.72
459.91	7684.47
460.13	7631.06
460.34	7687.09
460.55	7647.85
460.76	7714.70
460.97	7735.83
461.19	7729.12
461.40	7927.28
461.61	7813.49
461.82	7815.79
462.03	7849.62
462.24	7868.13
462.46	7842.08
462.67	7854.21
462.88	7942.92
463.09	7943.17
463.30	8008.95
463.51	7966.27
463.72	8104.22
463.94	8129.86
464.15	8152.31
464.36	8045.49
464.57	8258.64
464.78	8246.51
464.99	8272.16
465.20	8214.24
465.42	8334.50
465.63	8339.41
465.84	8349.00
466.05	8418.38
466.26	8476.46
466.47	8520.37
466.68	8485.14
466.90	8598.11
467.11	8580.91
467.32	8668.64
467.53	8733.60
467.74	8636.69
467.95	8710.34
468.16	8825.52
468.37	8874.09
468.59	8891.46
468.80	9036.54
469.01	8907.93
469.22	9080.86
469.43	9214.22
469.64	9115.84
469.85	9242.56
470.06	9283.36
470.28	9406.65
470.49	9224.30
470.70	9403.62
470.91	9593.10
471.12	9490.78
471.33	9668.13
471.54	9624.39
471.75	9623.90
471.96	9866.95
472.17	9807.97
472.39	10008.42
472.60	9811.98
472.81	10043.57
473.02	10004.74
473.23	10178.49
473.44	10224.44
473.65	10185.53
473.86	10266.06
474.07	10298.74
474.28	10355.84
474.49	10597.17
474.71	10522.63
474.92	10665.17
475.13	10583.82
475.34	10658.78
475.55	10696.30
475.76	10782.72
475.97	10990.47
476.18	10956.47
476.39	11083.52
476.60	11178.71
476.81	11172.49
477.02	11293.97
477.23	11325.02
477.44	11312.65
477.65	11472.31
477.87	11638.69
478.08	11623.78
478.29	11676.62
478.50	11847.17
478.71	11796.71
478.92	11931.71
479.13	11968.98
479.34	11990.69
479.55	12061.55
479.76	12099.32
479.97	12149.37
480.18	12460.01
480.39	12254.88
480.60	12516.78
480.81	12532.09
481.02	12573.22
481.23	12626.46
481.44	12802.34
481.65	12888.52
481.86	13009.84
482.07	12761.55
482.28	13278.46
482.49	13104.46
482.71	13187.12
482.92	13333.91
483.13	13458.84
483.34	13401.17
483.55	13486.28
483.76	13473.26
483.97	13705.33
484.18	13661.18
484.39	13799.30
484.60	13735.89
484.81	13993.52
485.02	13871.88
485.23	14103.21
485.44	14120.01
485.65	14218.31
485.86	14105.67
486.07	14365.68
486.28	14319.81
486.49	14438.51
486.70	14540.25
486.91	14651.99
487.12	14619.79
487.33	14580.80
487.54	14826.06
487.75	14819.76
487.96	14855.39
488.17	14867.93
488.38	14971.47
488.59	14971.72
488.80	15060.02
489.01	15070.26
489.22	15268.10
489.43	15246.31
489.64	15171.68
489.85	15445.45
490.06	15228.04
490.26	15462.57
490.47	15401.22
490.68	15564.97
490.89	15732.91
491.10	15462.25
491.31	15659.34
491.52	15798.44
491.73	15655.41
491.94	15662.29
492.15	15822.85
492.36	15881.18
492.57	15864.55
492.78	15903.13
492.99	15928.28
493.20	15999.06
493.41	16002.58
493.62	16048.54
493.83	15997.42
494.04	16067.38
494.25	16223.68
494.46	16174.45
494.67	16158.23
494.88	16228.68
495.08	16264.97
495.29	16293.23
495.50	16419.47
495.71	16344.35
495.92	16470.75
496.13	16435.03
496.34	16392.27
496.55	16561.35
496.76	16724.37
496.97	16413.73
497.18	16666.12
497.39	16657.03
497.60	16835.37
497.81	16583.47
498.02	16720.11
498.22	16573.47
498.43	16863.63
498.64	16848.15
498.85	16819.72
499.06	16845.36
499.27	17051.47
499.48	16720.85
499.69	16948.42
499.90	17005.51
500.11	17125.69
500.32	17299.52
500.52	17078.01
500.73	17366.94
500.94	17341.46
501.15	17398.89
501.36	17372.67
501.57	17290.26
501.78	17460.41
501.99	17584.35
502.20	17515.46
502.41	17616.55
502.61	17525.21
502.82	17739.91
503.03	17566.98
503.24	17827.08
503.45	17691.83
503.66	17948.15
503.87	17871.39
504.08	18040.39
504.28	17979.20
504.49	18101.67
504.70	18090.77
504.91	18213.98
505.12	18000.09
505.33	18322.03
505.54	18275.09
505.75	18285.33
505.95	18434.18
506.16	18387.56
506.37	18327.60
506.58	18709.10
506.79	18451.30
507.00	18742.68
507.21	18584.58
507.41	18635.53
507.62	18748.66
507.83	19049.80
508.04	18799.94
508.25	19003.76
508.46	18874.49
508.67	19186.11
508.87	18990.16
509.08	19283.26
509.29	19147.44
509.50	19320.21
509.71	19351.01
509.92	19473.48
510.12	19374.60
510.33	19455.38
510.54	19546.22
510.75	19611.59
510.96	19726.03
511.17	19878.73
511.37	19810.25
511.58	19943.20
511.79	19813.03
512.00	19842.44
512.21	20094.59
512.42	20131.94
512.62	20215.66
512.83	20298.65
513.04	20259.82
513.25	20454.13
513.46	20095.00
513.66	20660.89
513.87	20441.02
514.08	20593.80
514.29	20574.96
514.50	20608.63
514.71	20783.77
514.91	20728.23
515.12	20816.54
515.33	20859.38
515.54	20851.43
515.75	21110.22
515.95	20981.60
516.16	21019.12
516.37	21226.79
516.58	21268.32
516.78	21124.88
516.99	21362.20
517.20	21327.71
517.41	21380.22
517.62	21426.42
517.82	21464.76
518.03	21730.91
518.24	21922.44
518.45	21597.55
518.66	21892.70
518.86	21721.66
519.07	22001.90
519.28	21681.19
519.49	22055.89
519.69	22089.39
519.90	22072.43
520.11	22196.54
520.32	22134.69
520.52	22341.21
520.73	22193.51
520.94	22485.96
521.15	22464.25
521.36	22248.72
521.56	22695.51
521.77	22375.37
521.98	22731.39
522.19	22504.72
522.39	22771.69
522.60	22645.70
522.81	22762.19
523.02	22705.67
523.22	22915.38
523.43	23036.29
523.64	23003.44
523.84	23053.25
524.05	23310.80
524.26	23272.46
524.47	23140.24
524.67	23258.45
524.88	23365.93
525.09	23596.29
525.30	23441.30
525.50	23424.34
525.71	23514.29
525.92	23634.54
526.13	23774.46
526.33	23723.59
526.54	23582.61
526.75	23878.09
526.95	24101.64
527.16	23704.99
527.37	24088.95
527.58	24153.42
527.78	24100.50
527.99	24325.77
528.20	24420.72
528.40	24199.37
528.61	24276.70
528.82	24490.43
529.03	24494.69
529.23	24390.41
529.44	24657.13
529.65	24659.59
529.85	24711.12
530.06	24740.86
530.27	24817.37
530.47	24632.72
530.68	25152.50
530.89	24673.85
531.09	25124.15
531.30	25024.95
531.51	24859.47
531.72	25180.35
531.92	25200.17
532.13	25340.42
532.34	25247.19
532.54	25347.38
532.75	25375.07
532.96	25379.99
533.16	25582.00
533.37	25593.30
533.58	25462.89
533.78	25619.27
533.99	25691.77
534.20	25459.28
534.40	25700.94
534.61	25798.18
534.82	25886.00
535.02	25896.89
535.23	25885.75
535.44	25995.77
535.64	25919.17
535.85	26037.96
536.06	25943.01
536.26	25935.64
536.47	25937.03
536.68	26230.30
536.88	25895.66
537.09	26279.62
537.29	25953.91
537.50	26390.04
537.71	26140.11
537.91	26276.09
538.12	26408.15
538.33	26220.96
538.53	26380.95
538.74	26363.26
538.95	26389.88
539.15	26275.36
539.36	26430.02
539.56	26598.69
539.77	26363.67
539.98	26392.26
540.18	26558.22
540.39	26439.93
540.60	26571.33
540.80	26680.20
541.01	26652.76
541.21	26667.09
541.42	26744.67
541.63	26720.59
541.83	26842.97
542.04	26827.33
542.25	26696.42
542.45	26819.13
542.66	26728.86
542.86	26928.25
543.07	26454.68
543.28	26912.11
543.48	26861.49
543.69	27044.08
543.89	26927.92
544.10	27238.89
544.31	27070.38
544.51	26930.22
544.72	27132.64
544.92	27060.79
545.13	27227.01
545.33	27189.24
545.54	27105.60
545.75	27270.01
545.95	27154.67
546.16	27182.44
546.36	27440.90
546.57	27003.94
546.78	26592.06
546.98	27022.62
547.19	26599.18
547.39	27187.85
547.60	27415.34
547.80	27672.89
548.01	27687.80
548.22	27454.66
548.42	27532.48
548.63	27703.20
548.83	27626.03
549.04	27829.44
549.24	27577.70
549.45	27819.69
549.65	27983.36
549.86	27667.16
550.07	27771.36
550.27	27955.84
550.48	28096.66
550.68	27967.06
550.89	27945.43
551.09	28055.37
551.30	27978.61
551.50	28175.46
551.71	28087.73
551.91	28160.47
552.12	28192.50
552.33	28422.45
552.53	28102.64
552.74	28578.34
552.94	28548.19
553.15	28378.46
553.35	28651.90
553.56	28419.83
553.76	28747.09
553.97	28563.76
554.17	28646.58
554.38	29079.52
554.58	28669.92
554.79	29049.37
554.99	28723.91
555.20	28844.17
555.40	29220.34
555.61	29046.10
555.81	28887.42
556.02	29464.70
556.22	29420.38
556.43	29314.46
556.63	29347.39
556.84	29347.06
557.04	29740.27
557.25	29438.65
557.45	29604.37
557.66	29595.85
557.86	29546.13
558.07	29992.67
558.27	29780.91
558.48	29959.82
558.68	30014.05
558.89	30136.76
559.09	30113.00
559.30	30030.68
559.50	30321.98
559.71	30118.66
559.91	30531.36
560.12	30433.06
560.32	30453.95
560.53	30540.87
560.73	30431.42
560.94	30685.86
561.14	30495.89
561.35	30963.40
561.55	30888.61
561.76	30990.35
561.96	30779.41
562.17	31120.36
562.37	31241.68
562.57	31156.98
562.78	31147.72
562.98	31431.73
563.19	31497.02
563.39	31625.55
563.60	31707.64
563.80	31481.79
564.01	31873.19
564.21	31703.62
564.42	31595.57
564.62	31924.72
564.82	32117.47
565.03	32003.53
565.23	32097.08
565.44	32309.16
565.64	32304.09
565.85	32550.25
566.05	32304.25
566.25	32533.38
566.46	32381.83
566.66	32547.06
566.87	32607.76
567.07	32695.49
567.28	32827.14
567.48	33045.04
567.68	32679.27
567.89	33380.33
568.09	33085.18
568.30	33227.39
568.50	33545.32
568.71	33410.32
568.91	33718.17
569.11	33421.29
569.32	33525.25
569.52	33672.21
569.73	33449.39
569.93	33885.04
570.13	33756.51
570.34	33752.98
570.54	34166.18
570.75	33936.40
570.95	33980.39
571.15	33946.97
571.36	34303.31
571.56	34130.22
571.77	34094.67
571.97	33945.33
572.17	34527.77
572.38	34394.82
572.58	34613.46
572.79	34585.36
572.99	34693.25
573.19	34672.03
573.40	34640.74
573.60	34791.22
573.81	34838.98
574.01	35042.96
574.21	35021.82
574.42	35053.20
574.62	35051.31
574.82	35453.29
575.03	35134.79
575.23	35554.54
575.43	35300.43
575.64	35253.24
575.84	35706.99
576.05	35396.52
576.25	35641.62
576.45	35583.21
576.66	36023.36
576.86	35731.98
577.06	35985.60
577.27	35931.61
577.47	35843.63
577.67	35802.34
577.88	35489.82
578.08	36053.26
578.28	36177.45
578.49	36054.90
578.69	36269.12
578.89	36181.46
579.10	36388.96
579.30	36921.68
579.50	36550.67
579.71	36408.38
579.91	36841.16
580.11	36648.97
580.32	36604.33
580.52	36616.62
580.72	36963.62
580.93	36499.31
581.13	36587.37
581.33	37038.01
581.54	36696.16
581.74	36836.24
581.94	36966.25
582.15	37239.20
582.35	37019.66
582.55	37112.06
582.76	36940.36
582.96	37627.58
583.16	37326.69
583.37	37596.20
583.57	37328.08
583.77	37893.98
583.97	37098.95
584.18	37815.42
584.38	37558.52
584.58	37323.82
584.79	37704.58
584.99	37717.93
585.19	37726.12
585.40	37787.15
585.60	38057.57
585.80	37750.29
586.00	38095.74
586.21	38028.65
586.41	38114.50
586.61	38276.95
586.82	38220.75
587.02	38062.89
587.22	38387.45
587.42	37809.19
587.63	38367.14
587.83	37799.11
588.03	38041.59
588.23	37765.44
588.44	38039.63
588.64	37750.04
588.84	37945.99
589.05	38163.08
589.25	38198.30
589.45	38180.69
589.65	38121.46
589.86	38470.03
590.06	38454.46
590.26	38311.19
590.46	38704.89
590.67	38254.01
590.87	38702.84
591.07	38785.09
591.27	38461.92
591.48	38719.88
591.68	38252.70
591.88	39001.35
592.08	38257.53
592.29	38708.74
592.49	38692.93
592.69	38991.11
592.89	38759.53
593.10	38740.11
593.30	38581.27
593.50	39046.00
593.70	38194.45
593.90	38859.72
594.11	38675.97
594.31	38682.12
594.51	38919.60
594.71	38883.23
594.92	38828.75
595.12	38781.24
595.32	38821.21
595.52	39100.72
595.72	38385.16
595.93	39012.33
596.13	38778.29
596.33	38533.35
596.53	38931.72
596.73	38731.76
596.94	38729.46
597.14	39033.38
597.34	38752.98
597.54	39008.56
597.74	38688.67
597.95	38913.78
598.15	38848.08
598.35	38976.20
598.55	39007.99
598.75	38828.59
598.96	39226.06
599.16	38932.87
599.36	38966.13
599.56	38840.87
599.76	38739.62
599.97	39254.65
600.17	39005.37
600.37	39109.08
600.57	38496.90
600.77	39098.10
600.97	38760.68
601.18	39230.07
601.38	38914.85
601.58	39118.25
601.78	38957.85
601.98	38768.13
602.18	39076.06
602.39	39295.52
602.59	39148.07
602.79	39079.18
602.99	38982.84
603.19	39044.61
603.39	38804.91
603.60	38720.95
603.80	38802.04
604.00	38687.44
604.20	38735.20
604.40	38836.20
604.60	38627.97
604.80	38627.80
605.01	38922.22
605.21	38689.08
605.41	38714.88
605.61	38596.51
605.81	38877.57
606.01	39050.42
606.21	38594.63
606.42	38919.68
606.62	38833.01
606.82	39041.33
607.02	38847.67
607.22	38914.03
607.42	39151.67
607.62	38532.70
607.82	38703.66
608.03	38840.71
608.23	38693.09
608.43	38613.39
608.63	38940.57
608.83	38873.64
609.03	38887.65
609.23	38827.60
609.43	38931.07
609.63	38784.27
609.84	38647.22
610.04	39172.56
610.24	39058.61
610.44	39153.23
610.64	38844.81
610.84	39014.13
611.04	39356.39
611.24	39161.01
611.44	38654.92
611.64	39308.96
611.85	39273.24
612.05	39242.93
612.25	39294.29
612.45	39043.46
612.65	39199.92
612.85	39230.07
613.05	38918.04
613.25	39375.39
613.45	39182.88
613.65	39190.67
613.85	38905.26
614.05	39322.15
614.25	39552.17
614.46	39497.29
614.66	39346.64
614.86	39243.26
615.06	39402.84
615.26	39706.76
615.46	39222.70
615.66	39755.33
615.86	39708.39
616.06	39348.44
616.26	39425.04
616.46	39847.74
616.66	39494.09
616.86	39949.23
617.06	39641.71
617.26	40034.68
617.46	39902.38
617.66	39811.20
617.86	39545.79
618.07	39973.07
618.27	39866.50
618.47	39947.02
618.67	40118.48
618.87	40192.37
619.07	40016.24
619.27	40027.71
619.47	40035.41
619.67	40436.90
619.87	40018.70
620.07	40262.66
620.27	40259.30
620.47	40003.14
620.67	40270.11
620.87	40374.56
621.07	40539.62
621.27	40527.25
621.47	40277.07
621.67	40556.09
621.87	40434.28
622.07	40998.94
622.27	40886.63
622.47	40671.92
622.67	40855.26
622.87	40627.11
623.07	40975.02
623.27	41331.61
623.47	40495.31
623.67	40903.01
623.87	41198.58
624.07	41029.74
624.27	40867.79
624.47	41033.76
624.67	41024.58
624.87	41260.84
625.07	41029.09
625.27	41549.11
625.47	41332.51
625.67	41262.23
625.87	41603.58
626.07	41569.42
626.27	41713.11
626.47	41736.78
626.67	41756.69
626.87	41492.09
627.07	41936.83
627.27	41869.49
627.47	42142.94
627.67	41998.68
627.87	41962.31
628.07	42286.38
628.27	42167.84
628.47	41914.22
628.67	42417.36
628.86	42531.07
629.06	42369.28
629.26	42175.70
629.46	42694.00
629.66	42558.02
629.86	42293.59
630.06	42778.63
630.26	42748.40
630.46	43075.83
630.66	42840.39
630.86	43143.98
631.06	43153.65
631.26	42988.17
631.46	43492.14
631.66	43433.89
631.86	43142.76
632.06	43458.80
632.26	43277.43
632.45	43434.22
632.65	43543.34
632.85	43777.30
633.05	43879.37
633.25	44035.59
633.45	43789.59
633.65	43877.48
633.85	44485.57
634.05	43792.62
634.25	44141.35
634.45	44278.80
634.65	44665.71
634.84	44371.21
635.04	44503.02
635.24	44345.81
635.44	44818.24
635.64	44635.40
635.84	45048.76
636.04	44883.04
636.24	44837.33
636.44	44982.00
636.64	44503.51
636.84	45462.12
637.03	44964.22
637.23	45272.40
637.43	45404.61
637.63	45183.52
637.83	45636.77
638.03	45416.16
638.23	45219.07
638.43	45650.29
638.62	45889.82
638.82	45268.63
639.02	45999.18
639.22	45782.91
639.42	46068.89
639.62	45817.73
639.82	45937.00
640.02	46135.17
640.21	46323.01
640.41	45698.13
640.61	46206.52
640.81	46160.15
641.01	46029.41
641.21	46118.54
641.41	46817.47
641.61	46446.29
641.80	46557.87
642.00	46909.71
642.20	46881.94
642.40	46359.21
642.60	46829.02
642.80	46983.60
642.99	46678.61
643.19	47250.16
643.39	46688.20
643.59	47200.03
643.79	47060.93
643.99	47638.13
644.19	47416.62
644.38	47161.20
644.58	47666.23
644.78	47360.18
644.98	47477.08
645.18	47687.85
645.38	48087.45
645.57	47553.18
645.77	47734.55
645.97	47566.37
646.17	47904.69
646.37	47949.99
646.56	47632.31
646.76	48022.33
646.96	48118.66
647.16	47881.26
647.36	48255.80
647.55	48324.44
647.75	48646.30
647.95	48156.35
648.15	48596.17
648.35	48485.74
648.55	48652.20
648.74	48462.64
648.94	48621.15
649.14	49003.88
649.34	48744.77
649.54	48536.20
649.73	48835.04
649.93	48494.02
650.13	48830.13
650.33	48589.21
650.52	48962.26
650.72	49416.50
650.92	49000.77
651.12	48856.01
651.32	49210.31
651.51	49371.37
651.71	49447.30
651.91	49280.19
652.11	49176.40
652.30	49150.10
652.50	49616.96
652.70	49604.26
652.90	49201.79
653.10	49496.29
653.29	49285.35
653.49	49629.74
653.69	49253.81
653.89	49325.82
654.08	49208.18
654.28	49552.41
654.48	49325.41
654.68	49763.76
654.87	49495.64
655.07	49311.81
655.27	49804.31
655.47	49364.48
655.66	49531.76
655.86	49445.01
656.06	50053.83
656.26	49269.46
656.45	49859.52
656.65	49885.24
656.85	49769.98
657.04	49503.91
657.24	49458.53
657.44	49552.24
657.64	49814.55
657.83	49073.75
658.03	49820.53
658.23	49780.39
658.43	49591.15
658.62	49841.74
658.82	49621.38
659.02	49753.35
659.21	49810.29
659.41	49538.89
659.61	50016.39
659.81	49550.44
660.00	49388.08
660.20	49662.59
660.40	49444.76
660.59	49645.38
660.79	49289.20
660.99	49870.17
661.19	49775.80
661.38	49859.44
661.58	49154.61
661.78	49593.61
661.97	49432.07
662.17	49954.95
662.37	49434.61
662.56	49467.37
662.76	49475.48
662.96	49637.11
663.15	49757.04
663.35	49585.75
663.55	49404.87
663.74	49169.19
663.94	49655.79
664.14	48974.63
664.33	49407.08
664.53	49109.88
664.73	49744.01
664.93	49196.39
665.12	49509.07
665.32	49356.95
665.52	49391.11
665.71	49237.35
665.91	49591.07
666.10	49316.40
666.30	49702.48
666.50	49063.11
666.69	49122.01
666.89	49510.96
667.09	49654.15
667.28	49103.41
667.48	48902.71
667.68	49273.80
667.87	49039.27
668.07	48841.11
668.27	49242.10
668.46	49256.60
668.66	48913.36
668.86	49450.58
669.05	48999.04
669.25	49163.54
669.44	48877.07
669.64	48848.56
669.84	49129.05
670.03	49425.10
670.23	49010.02
670.43	49019.36
670.62	48911.88
670.82	48764.68
671.01	48974.39
671.21	48594.69
671.41	48742.72
671.60	48887.72
671.80	49059.91
672.00	48517.28
672.19	48841.84
672.39	48741.98
672.58	48763.20
672.78	48795.97
672.98	49219.90
673.17	48920.48
673.37	48136.77
673.56	48466.57
673.76	48683.74
673.96	48813.50
674.15	48636.39
674.35	48744.77
674.54	48464.69
674.74	48408.49
674.94	48256.12
675.13	48261.86
675.33	47799.18
675.52	48614.85
675.72	48350.41
675.91	48037.16
676.11	48299.21
676.31	47814.01
676.50	48081.88
676.70	47947.45
676.89	48169.70
677.09	48406.12
677.28	48244.57
677.48	47676.22
677.68	48257.27
677.87	47918.86
678.07	47729.63
678.26	47890.11
678.46	47974.65
678.65	47846.53
678.85	48047.15
679.04	47472.08
679.24	47762.32
679.44	47491.74
679.63	47612.16
679.83	47477.57
680.02	47515.91
680.22	47285.71
680.41	47462.66
680.61	47137.03
680.80	47083.46
681.00	47281.86
681.19	47324.95
681.39	47153.91
681.59	46898.89
681.78	46849.33
681.98	47190.69
682.17	46631.76
682.37	47115.24
682.56	46652.07
682.76	47055.85
682.95	46863.67
683.15	46932.81
683.34	46761.27
683.54	46966.48
683.73	47028.74
683.93	46293.76
684.12	46706.96
684.32	46790.11
684.51	46204.22
684.71	46469.07
684.90	46310.39
685.10	46248.62
685.29	46016.96
685.49	46247.56
685.68	46388.95
685.88	46318.42
686.07	46095.68
686.27	46549.92
686.46	46292.86
686.66	46037.35
686.85	46375.60
687.05	46164.74
687.24	46060.21
687.44	46229.62
687.63	46128.28
687.83	45566.24
688.02	46147.54
688.22	46245.18
688.41	45808.64
688.61	45707.96
688.80	45849.02
689.00	45410.18
689.19	45303.69
689.39	45899.73
689.58	45890.80
689.77	45751.54
689.97	45975.01
690.16	45722.79
690.36	45295.17
690.55	45108.81
690.75	45903.83
690.94	45396.91
691.14	45538.80
691.33	44986.66
691.53	45456.14
691.72	45406.09
691.91	45356.86
692.11	45448.69
692.30	45467.69
692.50	45619.16
692.69	45253.64
692.89	45441.97
693.08	45356.94
693.28	45346.12
693.47	45507.42
693.66	45281.16
693.86	45156.15
694.05	45005.42
694.25	45080.46
694.44	45141.90
694.64	44965.28
694.83	44889.02
695.02	44904.75
695.22	45102.01
695.41	44791.78
695.61	44720.92
695.80	44730.34
695.99	44869.52
696.19	44936.61
696.38	44891.72
696.58	44607.71
696.77	45266.34
696.96	45179.58
697.16	44791.04
697.35	44844.21
697.55	44697.41
697.74	44586.49
697.93	45106.02
698.13	44696.75
698.32	44986.17
698.52	44698.64
698.71	44370.80
698.90	45110.20
699.10	44574.70
699.29	44509.98
699.49	44949.72
699.68	44570.76
699.87	44536.44
700.07	44878.78
700.26	44639.74
700.45	44670.38
700.65	44349.83
700.84	44817.91
701.04	44509.98
701.23	44860.51
701.42	44609.67
701.62	44622.37
701.81	44786.13
702.00	44615.49
702.20	44259.72
702.39	44417.49
702.58	44562.74
702.78	44362.53
702.97	44303.05
703.17	44256.93
703.36	44354.01
703.55	44141.84
703.75	44110.05
703.94	44469.10
704.13	44412.00
704.33	44292.65
704.52	44837.24
704.71	44575.68
704.91	44555.20
705.10	44173.13
705.29	44173.05
705.49	44033.62
705.68	44276.43
705.87	44338.52
706.07	43749.69
706.26	44471.31
706.45	43915.41
706.65	43792.13
706.84	44401.60
707.03	44715.92
707.23	44151.99
707.42	44148.88
707.61	44758.44
707.80	44370.31
708.00	44561.75
708.19	44376.62
708.38	44765.98
708.58	44027.97
708.77	44609.35
708.96	44015.93
709.16	43984.88
709.35	44903.68
709.54	44357.94
709.74	44214.74
709.93	43961.94
710.12	44791.53
710.31	44966.35
710.51	44401.03
710.70	44452.64
710.89	44719.61
711.09	44177.06
711.28	44337.05
711.47	44705.93
711.66	44667.59
711.86	44588.95
712.05	44669.39
712.24	45042.21
712.43	44661.20
712.63	44216.46
712.82	44893.77
713.01	44665.79
713.21	44245.96
713.40	44387.02
713.59	44636.13
713.78	44161.50
713.98	44581.82
714.17	44420.93
714.36	44507.19
714.55	44045.50
714.75	44278.56
714.94	44435.76
715.13	44713.22
715.32	44175.83
715.52	44436.42
715.71	44340.24
715.90	44457.14
716.09	44418.72
716.29	44805.46
716.48	44701.83
716.67	44168.30
716.86	44786.70
717.06	44772.53
717.25	44893.44
717.44	45073.33
717.63	45071.20
717.82	44579.69
718.02	44888.94
718.21	45142.47
718.40	45416.66
718.59	45313.03
718.79	45137.31
718.98	45153.62
719.17	45331.54
719.36	45441.56
719.55	45137.40
719.75	44915.72
719.94	44827.33
720.13	45174.09
720.32	45082.18
720.51	44948.24
720.71	44939.07
720.90	44588.62
721.09	44948.57
721.28	44896.47
721.47	45253.39
721.67	45030.49
721.86	45168.03
722.05	45039.09
722.24	44654.98
722.43	45343.83
722.63	44873.21
722.82	45060.80
723.01	45109.95
723.20	44823.89
723.39	45029.43
723.58	45401.50
723.78	44884.92
723.97	45482.27
724.16	45021.40
724.35	45293.20
724.54	44995.35
724.73	45378.73
724.93	45001.49
725.12	45582.13
725.31	44686.84
725.50	45273.71
725.69	45554.12
725.88	45297.46
726.08	45010.50
726.27	45606.46
726.46	44817.75
726.65	45764.89
726.84	45075.55
727.03	45292.22
727.23	45660.28
727.42	45346.94
727.61	45457.62
727.80	45328.02
727.99	45656.68
728.18	45717.05
728.37	45548.79
728.56	45264.53
728.76	45061.70
728.95	45474.74
729.14	45393.56
729.33	45354.07
729.52	45620.22
729.71	45754.65
729.90	45698.37
730.09	45480.80
730.29	45857.54
730.48	45296.56
730.67	45858.28
730.86	45581.48
731.05	45976.49
731.24	45766.53
731.43	45794.96
731.62	45546.42
731.81	45478.10
732.01	46007.86
732.20	45444.51
732.39	46040.06
732.58	45975.18
732.77	45327.86
732.96	46063.08
733.15	46135.49
733.34	45910.95
733.53	46025.31
733.72	46029.00
733.92	46124.68
734.11	46052.18
734.30	46093.55
734.49	46280.82
734.68	46037.44
734.87	45955.44
735.06	46257.55
735.25	46518.05
735.44	46211.02
735.63	46414.67
735.82	46363.72
736.01	46177.19
736.20	46258.94
736.40	46625.86
736.59	46572.45
736.78	46974.42
736.97	46557.21
737.16	46554.67
737.35	46668.21
737.54	46623.57
737.73	46337.75
737.92	46521.49
738.11	46633.64
738.30	46440.07
738.49	46307.36
738.68	46443.18
738.87	46670.75
739.06	46449.24
739.25	46659.94
739.44	46768.97
739.63	46734.16
739.82	46429.09
740.01	47053.47
740.20	46590.22
740.39	46833.03
740.59	46849.99
740.78	46884.97
740.97	46753.32
741.16	46588.67
741.35	47037.17
741.54	46794.28
741.73	46935.84
741.92	46809.52
742.11	46926.09
742.30	47109.75
742.49	46615.95
742.68	47021.20
742.87	46959.84
743.06	46368.63
743.25	46696.80
743.44	46371.26
743.63	46692.13
743.82	46418.77
744.01	46541.48
744.20	46208.65
744.39	46681.32
744.58	46567.29
744.77	46616.36
744.96	46140.08
745.15	46854.66
745.34	46516.91
745.53	46724.49
745.72	46353.40
745.91	46500.69
746.10	46427.53
746.29	46638.72
746.48	46813.21
746.67	46510.60
746.86	46418.19
747.04	46549.02
747.23	46352.17
747.42	46790.19
747.61	46331.03
747.80	47089.93
747.99	46270.00
748.18	46875.22
748.37	46834.75
748.56	46377.56
748.75	46762.91
748.94	46793.22
749.13	46609.88
749.32	46348.81
749.51	46584.24
749.70	46678.45
749.89	46475.54
750.08	46422.86
750.27	45907.19
750.46	46184.40
750.65	46722.28
750.84	45994.10
751.02	46348.81
751.21	46161.46
751.40	46302.28
751.59	46474.39
751.78	46263.86
751.97	46404.51
752.16	46033.26
752.35	46481.60
752.54	46022.53
752.73	46545.50
752.92	46074.63
753.11	46234.04
753.30	46550.00
753.49	46695.57
753.67	46632.66
753.86	46272.87
754.05	46716.71
754.24	46565.24
754.43	46557.78
754.62	46551.80
754.81	46045.14
755.00	46280.24
755.19	46239.78
755.38	45567.63
755.56	46007.37
755.75	46453.58
755.94	45689.20
756.13	45791.11
756.32	46121.81
756.51	45738.02
756.70	45970.10
756.89	45810.69
757.08	45676.58
757.26	45797.50
757.45	45841.32
757.64	45493.58
757.83	45948.39
758.02	45536.09
758.21	45735.24
758.40	45687.97
758.59	45779.31
758.77	45481.54
758.96	45570.66
759.15	45560.92
759.34	45129.45
759.53	45233.81
759.72	45213.66
759.91	44949.96
760.09	45282.72
760.28	45272.56
760.47	44731.90
760.66	45290.75
760.85	44619.59
761.04	45229.96
761.23	44925.55
761.41	45101.11
761.60	45297.96
761.79	45055.31
761.98	44752.54
762.17	45408.87
762.36	44764.83
762.54	45267.07
762.73	44977.24
762.92	44750.98
763.11	45043.02
763.30	45116.75
763.49	44908.19
763.67	44682.75
763.86	44764.26
764.05	44916.30
764.24	44670.05
764.43	45066.54
764.61	44426.83
764.80	44454.68
764.99	44846.67
765.18	44214.01
765.37	44492.20
765.55	44605.91
765.74	44134.55
765.93	43974.64
766.12	44339.10
766.31	44186.32
766.49	44255.62
766.68	44301.41
766.87	44028.95
767.06	43757.31
767.25	43969.32
767.43	44063.85
767.62	43786.96
767.81	44154.21
768.00	43818.91
768.19	43629.03
768.37	43796.47
768.56	43884.37
768.75	43851.02
768.94	44030.10
769.12	43572.09
769.31	43670.56
769.50	43667.61
769.69	43932.94
769.88	43347.14
770.06	44169.61
770.25	43488.12
770.44	43439.06
770.63	43719.55
770.81	43426.28
771.00	43105.56
771.19	43186.50
771.38	42866.44
771.56	43341.57
771.75	42364.61
771.94	42997.10
772.13	42896.59
772.31	42581.37
772.50	43050.02
772.69	42649.60
772.88	43209.03
773.06	42404.09
773.25	42753.40
773.44	42697.45
773.62	42530.17
773.81	42647.80
774.00	42327.58
774.19	42493.39
774.37	42218.96
774.56	42532.87
774.75	41940.27
774.94	42327.50
775.12	41883.66
775.31	42195.12
775.50	42086.58
775.68	41846.96
775.87	41968.20
776.06	41637.74
776.25	41976.64
776.43	41563.94
776.62	41959.44
776.81	41497.50
776.99	41821.49
777.18	41812.89
777.37	41382.32
777.55	41642.66
777.74	41731.46
777.93	41595.15
778.12	41666.09
778.30	41352.67
778.49	41351.03
778.68	41490.54
778.86	41233.97
779.05	41392.32
779.24	41414.11
779.42	41005.50
779.61	40773.99
779.80	40853.04
779.98	40954.46
780.17	41082.66
780.36	40496.62
780.54	40860.34
780.73	39989.21
780.92	40786.44
781.10	40344.33
781.29	40320.00
781.48	40095.95
781.66	40367.02
781.85	40533.40
782.04	40168.37
782.22	40341.38
782.41	39934.41
782.60	40285.18
782.78	40132.24
782.97	40248.89
783.16	39623.44
783.34	39642.86
783.53	39854.86
783.71	39569.38
783.90	39697.09
784.09	39598.95
784.27	39641.47
784.46	39674.64
784.65	39732.97
784.83	39386.37
785.02	39334.76
785.20	39790.64
785.39	38971.53
785.58	39526.53
785.76	39211.31
785.95	39229.33
786.14	39321.98
786.32	39181.49
786.51	39121.77
786.69	39356.88
786.88	39109.57
787.07	39026.01
787.25	39033.47
787.44	38955.31
787.62	38907.80
787.81	39246.13
788.00	39233.18
788.18	38925.00
788.37	38950.07
788.55	39571.67
788.74	38981.36
788.93	39193.21
789.11	39496.06
789.30	39099.33
789.48	38761.33
789.67	39136.76
789.86	38971.86
790.04	39116.45
790.23	39174.28
790.41	38985.13
790.60	39217.86
790.78	39190.26
790.97	38774.60
791.16	38908.21
791.34	39388.01
791.53	38611.50
791.71	39218.68
791.90	38644.84
792.08	38926.64
792.27	38774.11
792.46	38917.47
792.64	38796.23
792.83	38757.24
793.01	38928.61
793.20	38980.79
793.38	38811.30
793.57	38933.20
793.75	38980.22
793.94	38928.28
794.12	39238.34
794.31	38733.48
794.50	38867.66
794.68	39004.30
794.87	38767.31
795.05	38995.95
795.24	38646.64
795.42	38648.12
795.61	39142.50
795.79	39033.79
795.98	38431.20
796.16	38896.42
796.35	39017.98
796.53	38737.41
796.72	39174.37
796.90	39114.07
797.09	39104.08
797.27	38953.92
797.46	38838.33
797.64	39029.53
797.83	38885.60
798.01	39054.44
798.20	39139.88
798.38	38955.81
798.57	39360.65
798.75	39086.79
798.94	38423.58
799.12	39369.50
799.31	38871.76
799.49	38757.48
799.68	38680.15
799.86	38646.48
800.05	38705.95
800.23	38670.07
800.42	38509.76
800.60	39024.29
800.79	38534.66
800.97	38697.02
801.16	38943.52
801.34	38373.77
801.53	38471.83
801.71	38641.07
801.90	38279.32
802.08	38695.63
802.27	38465.85
802.45	38268.26
802.64	38511.32
802.82	38672.86
803.00	38045.12
803.19	38169.55
803.37	38628.54
803.56	38294.07
803.74	38342.81
803.93	38580.45
804.11	38390.32
804.30	38252.53
804.48	38370.50
804.67	38388.76
804.85	38191.75
805.03	38441.19
805.22	38005.88
805.40	37808.78
805.59	37994.49
805.77	38054.86
805.96	37710.89
806.14	37950.34
806.32	37927.64
806.51	38295.13
806.69	37895.78
806.88	37828.19
807.06	37804.36
807.25	37913.47
807.43	37656.33
807.61	37800.18
807.80	37572.77
807.98	37898.64
808.17	37482.66
808.35	37352.66
808.53	37765.28
808.72	37385.67
808.90	37373.79
809.09	37471.19
809.27	37532.71
809.45	37131.07
809.64	37496.75
809.82	37254.35
810.01	37305.55
810.19	37526.08
810.37	37464.64
810.56	37357.57
810.74	37721.45
810.93	37209.30
811.11	37463.49
811.29	37303.18
811.48	37329.88
811.66	37226.09
811.84	37068.48
812.03	36910.62
812.21	36850.49
812.40	37229.04
812.58	37324.97
812.76	37023.02
812.95	37221.59
813.13	36742.69
813.31	36987.22
813.50	36951.34
813.68	36847.22
813.86	36986.64
814.05	37075.77
814.23	36477.44
814.42	36896.61
814.60	36724.26
814.78	36818.96
814.97	36752.27
815.15	36619.24
815.33	36715.16
815.52	36453.84
815.70	36400.27
815.88	36561.57
816.07	36219.39
816.25	36459.00
816.43	36558.70
816.62	36184.49
816.80	36513.81
816.98	36268.30
817.17	36306.88
817.35	36197.52
817.53	36225.86
817.72	36339.98
817.90	35885.25
818.08	36030.73
818.26	36155.17
818.45	35885.08
818.63	36213.25
818.81	36143.78
819.00	35807.67
819.18	36132.56
819.36	36158.04
819.55	36085.13
819.73	35808.24
819.91	35963.07
820.09	35750.65
820.28	36025.98
820.46	35707.65
820.64	36210.71
820.83	35743.53
821.01	35575.10
821.19	35633.51
821.38	35685.36
821.56	35682.99
821.74	35981.34
821.92	35675.12
822.11	36126.50
822.29	35577.15
822.47	35577.48
822.65	35680.69
822.84	35819.22
823.02	35430.60
823.20	35858.05
823.39	35254.06
823.57	35383.08
823.75	35487.45
823.93	35212.28
824.12	35483.84
824.30	35385.62
824.48	35337.78
824.66	35684.79
824.85	35016.33
825.03	35589.93
825.21	35562.57
825.39	35314.85
825.58	35507.76
825.76	35304.20
825.94	35412.08
826.12	35086.95
826.31	35009.12
826.49	35186.89
826.67	35273.07
826.85	35070.32
827.03	35245.46
827.22	35499.08
827.40	35263.97
827.58	35196.72
827.76	35300.26
827.95	35036.16
828.13	35090.55
828.31	35176.16
828.49	35195.90
828.67	35030.67
828.86	34886.90
829.04	35076.13
829.22	34909.35
829.40	34746.66
829.58	34793.27
829.77	35092.85
829.95	35135.36
830.13	35059.01
830.31	35030.26
830.49	35049.02
830.68	35082.36
830.86	34868.47
831.04	34722.33
831.22	34761.98
831.40	34701.93
831.59	35102.92
831.77	34758.70
831.95	34975.13
832.13	34610.84
832.31	34828.66
832.50	34749.28
832.68	34594.21
832.86	34598.14
833.04	34934.41
833.22	34392.85
833.40	35141.83
833.59	34704.31
833.77	34992.90
833.95	34105.97
834.13	35314.85
834.31	34701.27
834.49	34745.67
834.67	34824.23
834.86	34873.39
835.04	34698.32
835.22	34831.44
835.40	34782.46
835.58	34669.82
835.76	34659.33
835.95	34781.47
836.13	34456.09
836.31	34352.96
836.49	34717.25
836.67	34622.06
836.85	34534.82
837.03	34494.18
837.21	34595.27
837.40	34420.21
837.58	34134.97
837.76	34538.67
837.94	34566.85
838.12	34908.61
838.30	34637.38
838.48	34533.91
838.66	34567.83
838.85	34473.29
839.03	34539.89
839.21	34306.10
839.39	34274.80
839.57	34366.06
839.75	34288.32
839.93	34396.54
840.11	34434.14
840.29	34387.53
840.47	34563.16
840.66	34463.22
840.84	34631.32
841.02	34353.04
841.20	34640.24
841.38	34425.45
841.56	34508.52
841.74	34835.87
841.92	34367.05
842.10	34406.37
842.28	34550.13
842.46	34340.67
842.65	34282.51
842.83	34419.39
843.01	34649.26
843.19	34067.30
843.37	34398.42
843.55	34053.30
843.73	34316.17
843.91	34521.05
844.09	34234.75
844.27	34675.31
844.45	34307.74
844.63	34234.26
844.81	34416.85
844.99	34463.96
845.17	34349.43
845.35	34578.48
845.54	34315.60
845.72	34412.10
845.90	34343.53
846.08	34503.77
846.26	34113.10
846.44	34556.77
846.62	34122.93
846.80	34167.16
846.98	34228.52
847.16	34285.70
847.34	34439.95
847.52	34349.92
847.70	34356.72
847.88	34534.90
848.06	34289.14
848.24	34413.74
848.42	34409.97
848.60	33982.19
848.78	34308.80
848.96	34097.29
849.14	34107.04
849.32	34261.94
849.50	34091.23
849.68	34277.34
849.86	34177.16
850.04	34045.19
850.22	33911.41
850.40	33728.82
850.58	33967.69
850.76	34482.71
850.94	33430.80
851.12	34045.35
851.30	33934.02
851.48	34242.86
851.66	33952.45
851.84	33926.08
852.02	34055.26
852.20	34331.49
852.38	34124.65
852.56	34325.02
852.74	34374.50
852.92	34225.57
853.10	34124.89
853.28	34378.68
853.46	33788.37
853.64	34311.42
853.82	33972.77
854.00	34094.26
854.18	33864.64
854.36	33746.67
854.54	33986.12
854.72	33752.33
854.90	33656.48
855.07	33856.69
855.25	33881.10
855.43	34004.56
855.61	33953.36
855.79	33660.17
855.97	33865.70
856.15	33866.11
856.33	33653.86
856.51	33886.26
856.69	33440.79
856.87	33932.55
857.05	33730.62
857.23	33785.18
857.41	33570.55
857.59	33558.92
857.77	33804.67
857.94	33680.07
858.12	33983.99
858.30	33594.55
858.48	33825.40
858.66	33654.93
858.84	33901.17
859.02	33708.25
859.20	33679.58
859.38	34077.46
859.56	33912.23
859.74	33776.33
859.92	33842.85
860.09	33575.63
860.27	33939.18
860.45	33493.38
860.63	33525.58
860.81	33817.86
860.99	33564.57
861.17	33288.50
861.35	32938.14
861.53	32838.44
861.70	32752.26
861.88	33637.07
862.06	33709.32
862.24	33346.58
862.42	33364.85
862.60	33804.67
862.78	33959.50
862.96	33982.85
863.14	33753.72
863.31	33774.45
863.49	33445.79
863.67	33336.92
863.85	33273.27
864.03	33460.78
864.21	33473.97
864.39	33520.50
864.56	33197.33
864.74	33382.96
864.92	33183.07
865.10	33128.76
865.28	33215.84
865.46	33475.11
865.64	32841.55
865.81	33188.23
865.99	32797.89
866.17	33277.12
866.35	33051.84
866.53	33037.83
866.71	33135.81
866.88	33124.83
867.06	32844.50
867.24	33109.51
867.42	32819.11
867.60	32966.40
867.78	32774.38
867.95	33256.80
868.13	32838.52
868.31	33247.22
868.49	33169.07
868.67	32895.70
868.84	32973.36
869.02	33049.05
869.20	32537.47
869.38	33004.49
869.56	32796.83
869.73	32685.83
869.91	32926.67
870.09	32900.62
870.27	32633.40
870.45	32842.46
870.62	32554.10
870.80	32904.55
870.98	32935.11
871.16	32957.14
871.34	32997.20
871.51	33197.08
871.69	32922.41
871.87	33161.61
872.05	33093.62
872.23	33152.03
872.40	33006.13
872.58	33291.78
872.76	33040.70
872.94	32959.93
873.11	33233.86
873.29	32804.85
873.47	33015.47
873.65	32915.20
873.83	32925.60
874.00	32813.62
874.18	33115.16
874.36	32870.88
874.54	32968.04
874.71	32675.26
874.89	32435.81
875.07	32556.15
875.25	32347.17
875.42	32259.93
875.60	32226.18
875.78	32451.05
875.96	32057.84
876.13	32246.91
876.31	31768.75
876.49	31820.93
876.66	31530.61
876.84	32124.93
877.02	31793.08
877.20	31871.06
877.37	32195.87
877.55	32095.60
877.73	32133.61
877.91	31971.58
878.08	32409.92
878.26	32247.32
878.44	32193.33
878.61	32102.98
878.79	31962.81
878.97	32050.06
879.15	32391.25
879.32	32407.30
879.50	32258.95
879.68	32554.68
879.85	32175.47
880.03	32453.67
880.21	32221.84
880.38	32362.17
880.56	32142.13
880.74	32477.84
880.92	32071.19
881.09	32328.58
881.27	32268.45
881.45	32381.09
881.62	32264.60
881.80	32110.68
881.98	32072.91
882.15	32315.47
882.33	31970.51
882.51	32096.01
882.68	31771.12
882.86	32142.21
883.04	31747.04
883.21	31815.28
883.39	32183.58
883.57	31786.85
883.74	31816.75
883.92	31902.03
884.10	31874.67
884.27	31880.07
884.45	31655.29
884.63	32104.53
884.80	31917.18
884.98	32054.81
885.16	32076.43
885.33	32123.05
885.51	32234.45
885.69	32373.14
885.86	32346.60
886.04	32515.60
886.21	32220.04
886.39	32586.13
886.57	32028.35
886.74	32421.97
886.92	32317.44
887.10	32356.51
887.27	32227.25
887.45	32304.82
887.62	32278.45
887.80	32298.84
887.98	32685.58
888.15	32593.26
888.33	32464.73
888.51	32797.32
888.68	32476.77
888.86	32572.94
889.03	32317.68
889.21	32369.13
889.39	32533.79
889.56	32429.01
889.74	32388.46
889.91	32572.21
890.09	32582.77
890.27	32716.55
890.44	32670.84
890.62	32726.13
890.79	32868.26
890.97	32801.41
891.14	32791.17
891.32	32737.19
891.50	32711.55
891.67	32929.70
891.85	32971.64
892.02	32804.12
892.20	33073.79
892.38	32987.70
892.55	32688.86
892.73	32883.09
892.90	32702.87
893.08	32926.26
893.25	32841.88
893.43	33305.13
893.60	33005.39
893.78	33244.35
893.96	33098.70
894.13	33194.54
894.31	33418.10
894.48	33124.99
894.66	33310.29
894.83	33288.67
895.01	33333.23
895.18	33271.14
895.36	33341.83
895.53	33482.40
895.71	33327.82
895.89	33272.77
896.06	32889.48
896.24	33147.44
896.41	32988.27
896.59	33168.25
896.76	32571.80
896.94	32939.86
897.11	33041.85
897.29	33221.99
897.46	32968.36
897.64	33096.24
897.81	33182.34
897.99	32838.20
898.16	33468.48
898.34	33386.56
898.51	33384.76
898.69	33172.18
898.86	33313.57
899.04	33235.09
899.21	33074.94
899.39	33161.77
899.56	32928.22
899.74	33381.64
899.91	32966.40
900.09	32864.82
900.26	33112.46
900.44	32838.85
900.61	32915.20
900.79	33318.40
900.96	33083.79
901.14	32999.25
901.31	32804.85
901.49	32843.85
901.66	33043.89
901.84	33013.17
902.01	32861.87
902.19	32878.66
902.36	32703.11
902.54	32661.42
902.71	32659.61
902.88	32678.78
903.06	32182.52
903.23	32909.79
903.41	32454.41
903.58	32426.55
903.76	32297.86
903.93	32518.47
904.11	32678.70
904.28	32378.80
904.45	32292.13
904.63	32143.28
904.80	31822.65
904.98	31947.17
905.15	31612.69
905.33	31989.85
905.50	31743.76
905.68	31787.83
905.85	31596.06
906.02	31529.95
906.20	31841.41
906.37	31434.93
906.55	31371.60
906.72	31786.20
906.90	31318.03
907.07	31217.76
907.24	31494.07
907.42	31175.41
907.59	31249.87
907.77	31201.54
907.94	31169.43
908.11	31211.37
908.29	31151.49
908.46	31141.58
908.64	30906.72
908.81	31008.46
908.98	30702.25
909.16	30959.80
909.33	30789.41
909.51	30631.39
909.68	30656.86
909.85	30601.90
910.03	30559.63
910.20	30272.34
910.37	30282.99
910.55	30175.43
910.72	30067.70
910.90	29990.45
911.07	29941.14
911.24	29870.28
911.42	30304.37
911.59	29923.53
911.76	30190.42
911.94	29970.96
912.11	29956.62
912.29	29752.23
912.46	29514.92
912.63	29556.12
912.81	29201.49
912.98	29391.79
913.15	29035.94
913.33	29223.78
913.50	29131.13
913.67	28862.19
913.85	28811.32
914.02	28967.45
914.19	28842.85
914.37	28721.53
914.54	28898.64
914.71	28638.71
914.89	28763.97
915.06	28742.34
915.23	28530.50
915.41	28396.07
915.58	28379.77
915.75	28235.75
915.93	28257.05
916.10	28000.89
916.27	27999.75
916.45	27947.32
916.62	27749.24
916.79	27982.71
916.97	27792.41
917.14	27795.03
917.31	27626.44
917.49	27619.64
917.66	27645.86
917.83	27297.29
918.00	27292.21
918.18	26991.41
918.35	26780.22
918.52	26873.28
918.70	26546.26
918.87	26482.69
919.04	26528.81
919.21	26384.47
919.39	26165.50
919.56	26289.69
919.73	26117.91
919.91	26166.90
920.08	26155.26
920.25	25903.77
920.42	26202.70
920.60	25817.84
920.77	25759.27
920.94	25779.26
921.11	25432.41
921.29	25679.48
921.46	25225.81
921.63	25550.95
921.81	25264.64
921.98	25239.08
922.15	25229.34
922.32	25188.21
922.50	24982.27
922.67	24909.36
922.84	24868.16
923.01	24609.46
923.19	24660.17
923.36	24668.93
923.53	24266.46
923.70	24467.57
923.87	24332.57
924.05	24477.32
924.22	24203.63
924.39	24300.30
924.56	24042.50
924.74	24159.40
924.91	24183.64
925.08	24022.35
925.25	24022.18
925.43	23967.54
925.60	23756.93
925.77	23898.16
925.94	23748.90
926.11	23668.37
926.29	23498.15
926.46	23567.37
926.63	23478.65
926.80	23407.05
926.97	23171.21
927.15	23266.24
927.32	22995.00
927.49	22868.52
927.66	22925.29
927.83	22957.07
928.01	22819.12
928.18	22741.79
928.35	22490.63
928.52	22734.75
928.69	22364.64
928.87	22267.65
929.04	22232.01
929.21	22192.94
929.38	21960.78
929.55	21999.12
929.72	21672.01
929.90	21647.93
930.07	21673.49
930.24	21446.98
930.41	21495.32
930.58	21486.31
930.75	21554.30
930.93	21371.05
931.10	21345.24
931.27	21186.89
931.44	21285.93
931.61	21066.47
931.78	21243.91
931.95	21008.55
932.13	20849.14
932.30	21051.97
932.47	20633.86
932.64	20799.50
932.81	20695.05
932.98	20650.57
933.15	20627.14
933.33	20484.36
933.50	20605.92
933.67	20284.64
933.84	20254.17
934.01	20201.74
934.18	20159.63
934.35	20057.89
934.52	20058.30
934.70	19976.46
934.87	19991.12
935.04	19789.69
935.21	19846.37
935.38	19855.22
935.55	19750.77
935.72	19866.44
935.89	19629.45
936.06	19679.59
936.24	19381.32
936.41	19552.20
936.58	19236.41
936.75	19226.33
936.92	19192.09
937.09	19132.94
937.26	18976.56
937.43	18995.89
937.60	19068.72
937.77	18812.80
937.94	18887.68
938.12	18862.94
938.29	18679.36
938.46	18813.79
938.63	18578.44
938.80	18639.71
938.97	18589.82
939.14	18563.69
939.31	18404.93
939.48	18486.36
939.65	18213.81
939.82	18254.36
939.99	18211.85
940.16	18076.93
940.33	17988.87
940.50	17914.32
940.67	17899.90
940.85	17932.75
941.02	17818.39
941.19	17859.68
941.36	17731.48
941.53	17742.54
941.70	17680.11
941.87	17491.29
942.04	17503.17
942.21	17468.03
942.38	17443.70
942.55	17221.61
942.72	17279.94
942.89	17222.93
943.06	17115.28
943.23	17040.16
943.40	17013.62
943.57	17076.13
943.74	17106.68
943.91	16923.35
944.08	16863.06
944.25	16937.36
944.42	16736.74
944.59	16662.36
944.76	16698.40
944.93	16619.10
945.10	16517.52
945.27	16455.84
945.44	16269.72
945.61	16321.66
945.78	16248.09
945.95	16170.68
946.12	16071.07
946.29	16230.32
946.46	16120.95
946.63	16063.69
946.80	16077.05
946.97	16036.17
947.14	15938.85
947.31	15998.08
947.48	15898.30
947.65	15785.42
947.82	15803.52
947.99	15776.49
948.16	15522.13
948.33	15691.86
948.50	15397.20
948.67	15473.31
948.84	15304.55
949.01	15254.17
949.18	15309.22
949.35	15311.02
949.52	15155.62
949.68	15260.40
949.85	15235.66
950.02	15120.15
950.19	15113.44
950.36	15073.05
950.53	15129.33
950.70	15004.48
950.87	14886.77
951.04	15059.12
951.21	14816.89
951.38	14732.51
951.55	14753.32
951.72	14698.27
951.89	14614.80
952.06	14559.34
952.23	14509.78
952.39	14309.24
952.56	14193.41
952.73	14285.16
952.90	14181.36
953.07	14251.81
953.24	14146.14
953.41	14074.95
953.58	13936.84
953.75	14106.49
953.92	13998.28
954.09	13930.86
954.25	13870.32
954.42	13921.27
954.59	13798.56
954.76	13779.80
954.93	13790.04
955.10	13856.31
955.27	13678.71
955.44	13713.20
955.61	13591.06
955.77	13745.47
955.94	13562.06
956.11	13612.27
956.28	13563.21
956.45	13457.12
956.62	13510.78
956.79	13466.05
956.96	13383.48
957.12	13392.98
957.29	13336.95
957.46	13276.41
957.63	13253.31
957.80	13176.22
957.97	13124.94
958.14	13205.30
958.30	12984.86
958.47	13022.21
958.64	12968.72
958.81	13055.80
958.98	12898.43
959.15	12863.05
959.32	12922.03
959.48	12846.91
959.65	12714.69
959.82	12781.37
959.99	12637.85
960.16	12709.78
960.33	12697.82
960.49	12606.15
960.66	12562.32
960.83	12571.91
961.00	12550.77
961.17	12517.43
961.33	12472.38
961.50	12413.80
961.67	12388.33
961.84	12412.98
962.01	12317.96
962.18	12337.46
962.34	12171.82
962.51	12193.93
962.68	12073.92
962.85	12199.18
963.02	12029.52
963.18	12088.18
963.35	12022.97
963.52	11961.37
963.69	12011.58
963.86	12032.72
964.02	11866.09
964.19	11972.51
964.36	11916.07
964.53	11883.05
964.69	11756.32
964.86	11862.49
965.03	11735.60
965.20	11768.12
965.37	11600.02
965.53	11624.52
965.70	11583.31
965.87	11574.87
966.04	11496.15
966.20	11556.93
966.37	11443.64
966.54	11295.94
966.71	11492.30
966.87	11353.94
967.04	11314.37
967.21	11278.08
967.38	11244.74
967.54	11220.00
967.71	11144.96
967.88	11142.67
968.05	11115.06
968.21	10981.78
968.38	10931.81
968.55	10916.66
968.72	10868.49
968.88	10768.22
969.05	10832.28
969.22	10688.92
969.39	10721.20
969.55	10697.52
969.72	10584.48
969.89	10552.12
970.05	10607.66
970.22	10590.62
970.39	10529.10
970.56	10536.64
970.72	10474.87
970.89	10513.04
971.06	10419.33
971.22	10375.34
971.39	10409.17
971.56	10377.63
971.73	10318.24
971.89	10428.58
972.06	10297.02
972.23	10333.39
972.39	10152.11
972.56	10209.78
972.73	10096.16
972.89	10154.65
973.06	10172.18
973.23	10081.33
973.39	10043.16
973.56	10077.48
973.73	10066.75
973.89	10073.63
974.06	9968.45
974.23	9994.50
974.39	9946.98
974.56	9938.22
974.73	9874.16
974.89	9828.86
975.06	9820.26
975.23	9901.27
975.39	9747.92
975.56	9822.47
975.73	9740.63
975.89	9752.18
976.06	9741.20
976.23	9637.17
976.39	9697.05
976.56	9588.18
976.73	9614.23
976.89	9544.11
977.06	9528.38
977.23	9444.90
977.39	9427.87
977.56	9437.04
977.72	9340.62
977.89	9367.74
978.06	9327.27
978.22	9230.36
978.39	9251.00
978.56	9199.31
978.72	9120.34
978.89	9124.52
979.05	9138.53
979.22	9065.54
979.39	9096.50
979.55	9041.04
979.72	9006.64
979.88	9073.57
980.05	8989.35
980.22	9022.86
980.38	8975.51
980.55	8958.72
980.71	8919.97
980.88	8926.60
981.05	8903.99
981.21	8878.44
981.38	8855.17
981.54	8828.55
981.71	8802.83
981.88	8783.82
982.04	8820.11
982.21	8766.13
982.37	8796.84
982.54	8712.55
982.70	8723.86
982.87	8682.65
983.04	8581.64
983.20	8696.00
983.37	8611.38
983.53	8609.99
983.70	8565.01
983.86	8497.60
984.03	8549.61
984.20	8453.20
984.36	8486.95
984.53	8431.98
984.69	8401.91
984.86	8337.28
985.02	8364.40
985.19	8322.54
985.35	8314.02
985.52	8222.10
985.68	8274.37
985.85	8213.67
986.02	8209.82
986.18	8163.45
986.35	8183.52
986.51	8142.07
986.68	8127.65
986.84	8093.74
987.01	8035.57
987.17	8093.24
987.34	8024.02
987.50	7998.63
987.67	7935.88
987.83	8010.92
988.00	7949.07
988.16	7932.85
988.33	7902.87
988.49	7885.42
988.66	7823.49
988.82	7895.41
988.99	7868.79
989.15	7856.25
989.32	7804.73
989.48	7835.94
989.65	7784.74
989.81	7797.19
989.98	7726.90
990.14	7727.31
990.31	7694.71
990.47	7665.63
990.64	7679.88
990.80	7648.43
990.97	7595.26
991.13	7605.09
991.30	7596.41
991.46	7520.63
991.63	7528.58
991.79	7514.00
991.95	7432.08
992.12	7529.56
992.28	7401.77
992.45	7417.99
992.61	7420.12
992.78	7405.45
992.94	7348.52
993.11	7379.65
993.27	7322.64
993.44	7324.03
993.60	7259.72
993.76	7298.06
993.93	7288.72
994.09	7279.96
994.26	7256.77
994.42	7239.90
994.59	7189.11
994.75	7223.19
994.91	7223.35
995.08	7157.98
995.24	7149.38
995.41	7164.61
995.57	7126.19
995.74	7104.32
995.90	7050.91
996.06	7051.40
996.23	7022.73
996.39	7011.67
996.56	6957.20
996.72	6960.47
996.88	6964.16
997.05	6963.18
997.21	6900.18
997.38	6935.08
997.54	6867.49
997.70	6861.10
997.87	6854.80
998.03	6843.66
998.20	6757.23
998.36	6769.93
998.52	6735.03
998.69	6793.03
998.85	6734.95
999.02	6729.38
999.18	6751.42
999.34	6714.22
999.51	6741.91
999.67	6741.34
999.83	6735.03
1000.00	6709.56
1000.16	6695.06
1000.33	6669.50
1000.49	6648.69
1000.65	6653.69
1000.82	6623.29
1000.98	6594.54
1001.14	6563.82
1001.31	6580.94
1001.47	6542.85
1001.63	6514.42
1001.80	6520.57
1001.96	6445.53
1002.12	6400.48
1002.29	6451.35
1002.45	6393.68
1002.61	6403.02
1002.78	6368.04
1002.94	6367.13
1003.10	6348.46
1003.27	6320.44
1003.43	6323.64
1003.59	6327.81
1003.76	6300.29
1003.92	6304.14
1004.08	6278.50
1004.25	6308.48
1004.41	6261.21
1004.57	6290.30
1004.74	6215.09
1004.90	6234.75
1005.06	6211.33
1005.23	6221.48
1005.39	6207.07
1005.55	6175.04
1005.71	6188.88
1005.88	6147.92
1006.04	6161.68
1006.20	6135.80
1006.37	6066.17
1006.53	6059.86
1006.69	6045.60
1006.85	6042.90
1007.02	5975.89
1007.18	5992.85
1007.34	5977.12
1007.51	5990.23
1007.67	5917.16
1007.83	5939.76
1007.99	5884.72
1008.16	5884.39
1008.32	5866.04
1008.48	5887.25
1008.64	5826.39
1008.81	5868.17
1008.97	5806.24
1009.13	5808.94
1009.29	5798.70
1009.46	5795.59
1009.62	5825.32
1009.78	5760.53
1009.95	5805.75
1010.11	5751.76
1010.27	5730.95
1010.43	5761.35
1010.59	5740.13
1010.76	5716.45
1010.92	5712.11
1011.08	5711.95
1011.24	5669.60
1011.41	5703.35
1011.57	5644.86
1011.73	5669.92
1011.89	5634.37
1012.06	5650.84
1012.22	5552.78
1012.38	5575.88
1012.54	5567.28
1012.70	5545.98
1012.87	5498.39
1013.03	5526.89
1013.19	5493.64
1013.35	5518.21
1013.51	5453.33
1013.68	5470.53
1013.84	5450.79
1014.00	5449.56
1014.16	5414.99
1014.32	5400.99
1014.49	5393.28
1014.65	5401.89
1014.81	5356.50
1014.97	5405.41
1015.13	5372.31
1015.30	5348.31
1015.46	5387.96
1015.62	5356.91
1015.78	5317.84
1015.94	5297.85
1016.10	5277.04
1016.27	5261.89
1016.43	5259.51
1016.59	5277.12
1016.75	5226.01
1016.91	5261.48
1017.07	5244.11
1017.24	5217.57
1017.40	5178.49
1017.56	5196.60
1017.72	5174.15
1017.88	5178.74
1018.04	5173.41
1018.21	5168.58
1018.37	5156.05
1018.53	5113.37
1018.69	5133.11
1018.85	5106.98
1019.01	5085.11
1019.17	5117.46
1019.34	5092.07
1019.50	5095.35
1019.66	5072.16
1019.82	5038.25
1019.98	5009.82
1020.14	5058.40
1020.30	4997.37
1020.46	5035.05
1020.63	5004.17
1020.79	4978.45
1020.95	4994.18
1021.11	5009.82
1021.27	4950.02
1021.43	4956.33
1021.59	4968.78
1021.75	4951.33
1021.91	4908.00
1022.07	4879.49
1022.24	4873.92
1022.40	4878.83
1022.56	4860.16
1022.72	4861.80
1022.88	4808.63
1023.04	4862.94
1023.20	4803.63
1023.36	4792.82
1023.52	4789.79
1023.68	4799.46
1023.84	4763.82
1024.01	4784.38
1024.17	4744.57
1024.33	4758.91
1024.49	4744.65
1024.65	4735.97
1024.81	4715.00
1024.97	4726.38
1025.13	4709.75
1025.29	4702.46
1025.45	4676.91
1025.61	4685.26
1025.77	4648.32
1025.93	4673.46
1026.09	4651.67
1026.25	4688.54
1026.41	4648.81
1026.57	4655.11
1026.73	4638.73
1026.90	4651.10
1027.06	4633.41
1027.22	4601.79
1027.38	4614.16
1027.54	4638.40
1027.70	4600.72
1027.86	4595.15
1028.02	4603.92
1028.18	4590.15
1028.34	4548.95
1028.50	4592.94
1028.66	4537.15
1028.82	4530.19
1028.98	4526.34
1029.14	4537.40
1029.30	4501.52
1029.46	4518.64
1029.62	4493.08
1029.78	4471.37
1029.94	4442.37
1030.10	4484.72
1030.26	4430.49
1030.42	4446.06
1030.58	4447.61
1030.74	4421.24
1030.90	4410.59
1031.06	4416.81
1031.22	4432.21
1031.38	4404.61
1031.54	4415.01
1031.70	4388.31
1031.86	4383.80
1032.02	4363.81
1032.18	4365.70
1032.34	4351.11
1032.50	4337.02
1032.66	4357.34
1032.82	4305.98
1032.98	4336.61
1033.14	4309.50
1033.30	4287.96
1033.45	4294.26
1033.61	4303.19
1033.77	4284.10
1033.93	4266.25
1034.09	4253.96
1034.25	4255.60
1034.41	4246.59
1034.57	4246.83
1034.73	4238.48
1034.89	4231.02
1035.05	4218.98
1035.21	4239.30
1035.37	4209.48
1035.53	4208.74
1035.69	4192.77
1035.85	4208.74
1036.01	4163.85
1036.16	4171.79
1036.32	4153.03
1036.48	4166.31
1036.64	4130.02
1036.80	4133.13
1036.96	4144.02
1037.12	4128.30
1037.28	4155.16
1037.44	4115.76
1037.60	4113.71
1037.76	4110.19
1037.91	4090.04
1038.07	4121.25
1038.23	4087.66
1038.39	4095.12
1038.55	4076.93
1038.71	4088.89
1038.87	4040.81
1039.03	4046.21
1039.19	4046.13
1039.35	4043.76
1039.50	4053.34
1039.66	4042.85
1039.82	4009.43
1039.98	4029.91
1040.14	4019.59
1040.30	4014.10
1040.46	3989.44
1040.62	3988.38
1040.77	3994.60
1040.93	4006.24
1041.09	3970.93
1041.25	3980.84
1041.41	3977.81
1041.57	3966.01
1041.73	3966.01
1041.88	3966.01

