SpectraSuite Data File
++++++++++++++++++++++++++++++++++++
Date: Tue Sep 13 11:10:22 EDT 2022
User: Laboratoire
Dark Spectrum Present: No
Reference Spectrum Present: No
Number of Sampled Component Spectra: 1
Spectrometers: FLMT00174
Integration Time (usec): 40000 (FLMT00174)
Spectra Averaged: 25 (FLMT00174)
Boxcar Smoothing: 0 (FLMT00174)
Correct for Electrical Dark: No (FLMT00174)
Strobe/Lamp Enabled: No (FLMT00174)
Correct for Detector Non-linearity: No (FLMT00174)
Correct for Stray Light: No (FLMT00174)
Number of Pixels in Processed Spectrum: 3648
>>>>>Begin Processed Spectral Data<<<<<
345.74	3079.82
345.96	3079.82
346.18	3079.82
346.39	3081.21
346.61	3196.47
346.83	3196.39
347.05	3210.81
347.27	3176.48
347.49	3214.57
347.71	3223.09
347.93	3252.26
348.15	3217.28
348.36	3232.76
348.58	3223.34
348.80	3213.10
349.02	3201.96
349.24	3212.12
349.46	3415.93
349.68	3462.95
349.90	3470.49
350.11	3429.12
350.33	3450.01
350.55	3429.45
350.77	3439.03
350.99	3426.42
351.21	3444.27
351.43	3419.94
351.65	3454.43
351.86	3428.63
352.08	3447.14
352.30	3413.23
352.52	3455.66
352.74	3412.49
352.96	3426.25
353.18	3466.80
353.39	3444.93
353.61	3445.42
353.83	3485.64
354.05	3506.20
354.27	3472.70
354.49	3468.60
354.70	3459.43
354.92	3444.60
355.14	3402.90
355.36	3432.31
355.58	3434.61
355.80	3433.71
356.02	3467.37
356.23	3458.86
356.45	3444.36
356.67	3466.39
356.89	3464.67
357.11	3460.99
357.33	3496.13
357.54	3420.85
357.76	3419.37
357.98	3430.92
358.20	3445.34
358.42	3408.31
358.63	3438.62
358.85	3450.75
359.07	3446.08
359.29	3413.06
359.51	3427.56
359.73	3415.77
359.94	3440.75
360.16	3413.80
360.38	3421.42
360.60	3419.45
360.82	3436.16
361.03	3463.03
361.25	3421.58
361.47	3471.39
361.69	3466.56
361.91	3450.50
362.12	3442.47
362.34	3433.95
362.56	3446.16
362.78	3441.57
363.00	3462.79
363.21	3424.29
363.43	3476.47
363.65	3404.05
363.87	3421.01
364.09	3461.07
364.30	3420.19
364.52	3427.64
364.74	3455.99
364.96	3436.16
365.17	3457.54
365.39	3453.53
365.61	3412.82
365.83	3445.17
366.05	3414.54
366.26	3419.29
366.48	3429.20
366.70	3466.56
366.92	3455.41
367.13	3450.75
367.35	3425.10
367.57	3460.82
367.79	3445.34
368.01	3444.11
368.22	3461.39
368.44	3447.88
368.66	3432.72
368.88	3440.59
369.09	3422.97
369.31	3465.90
369.53	3418.14
369.75	3427.23
369.96	3447.22
370.18	3416.83
370.40	3470.00
370.62	3450.83
370.83	3433.05
371.05	3458.20
371.27	3463.93
371.49	3428.38
371.70	3452.96
371.92	3426.91
372.14	3443.21
372.36	3414.21
372.57	3462.05
372.79	3431.90
373.01	3450.66
373.22	3421.66
373.44	3443.78
373.66	3417.81
373.88	3423.55
374.09	3409.38
374.31	3408.31
374.53	3391.27
374.75	3471.88
374.96	3442.88
375.18	3469.91
375.40	3441.08
375.61	3426.33
375.83	3411.75
376.05	3426.83
376.27	3450.34
376.48	3405.20
376.70	3413.39
376.92	3426.42
377.13	3428.05
377.35	3406.92
377.57	3413.88
377.79	3415.93
378.00	3427.40
378.22	3452.30
378.44	3391.68
378.65	3459.67
378.87	3437.31
379.09	3445.01
379.30	3414.37
379.52	3415.93
379.74	3426.66
379.96	3411.26
380.17	3403.72
380.39	3416.50
380.61	3419.29
380.82	3419.62
381.04	3421.66
381.26	3432.40
381.47	3447.63
381.69	3482.20
381.91	3412.16
382.12	3434.94
382.34	3486.05
382.56	3414.37
382.77	3426.66
382.99	3437.06
383.21	3426.99
383.42	3473.19
383.64	3447.06
383.86	3437.23
384.07	3456.56
384.29	3421.17
384.51	3400.61
384.72	3425.84
384.94	3428.38
385.16	3402.41
385.37	3415.68
385.59	3414.37
385.81	3434.12
386.02	3380.13
386.24	3439.28
386.46	3394.30
386.67	3416.42
386.89	3467.54
387.11	3470.16
387.32	3422.48
387.54	3432.64
387.76	3449.60
387.97	3476.47
388.19	3453.37
388.40	3435.51
388.62	3402.17
388.84	3457.54
389.05	3434.85
389.27	3422.97
389.49	3463.12
389.70	3408.64
389.92	3430.43
390.14	3417.65
390.35	3442.14
390.57	3437.39
390.78	3420.11
391.00	3404.05
391.22	3410.77
391.43	3417.24
391.65	3421.34
391.86	3452.71
392.08	3428.14
392.30	3406.67
392.51	3411.67
392.73	3472.13
392.95	3412.16
393.16	3378.98
393.38	3436.08
393.59	3402.82
393.81	3438.46
394.03	3414.54
394.24	3413.39
394.46	3413.23
394.67	3424.29
394.89	3386.44
395.11	3416.91
395.32	3455.58
395.54	3454.19
395.75	3449.52
395.97	3424.61
396.19	3388.08
396.40	3438.70
396.62	3414.70
396.83	3419.53
397.05	3421.50
397.26	3406.10
397.48	3400.86
397.70	3428.05
397.91	3434.12
398.13	3404.87
398.34	3426.33
398.56	3417.16
398.78	3436.74
398.99	3480.65
399.21	3383.41
399.42	3467.21
399.64	3388.57
399.85	3426.91
400.07	3399.46
400.29	3452.96
400.50	3409.62
400.72	3454.19
400.93	3405.28
401.15	3406.51
401.36	3422.81
401.58	3421.75
401.79	3432.40
402.01	3432.64
402.23	3427.15
402.44	3488.59
402.66	3420.93
402.87	3440.51
403.09	3444.93
403.30	3429.86
403.52	3400.69
403.73	3388.73
403.95	3396.02
404.16	3402.90
404.38	3404.38
404.60	3421.34
404.81	3426.42
405.03	3418.80
405.24	3440.34
405.46	3443.21
405.67	3437.15
405.89	3427.48
406.10	3421.34
406.32	3404.13
406.53	3443.21
406.75	3498.09
406.96	3407.66
407.18	3435.84
407.39	3401.51
407.61	3448.04
407.82	3401.35
408.04	3455.74
408.25	3406.51
408.47	3410.61
408.68	3430.51
408.90	3391.85
409.12	3437.72
409.33	3419.53
409.55	3418.06
409.76	3416.01
409.98	3426.83
410.19	3434.94
410.41	3429.61
410.62	3410.85
410.84	3378.74
411.05	3431.99
411.27	3434.53
411.48	3435.75
411.70	3439.19
411.91	3420.11
412.12	3413.96
412.34	3379.07
412.55	3417.73
412.77	3426.83
412.98	3411.18
413.20	3390.21
413.41	3403.07
413.63	3421.01
413.84	3407.57
414.06	3435.02
414.27	3389.47
414.49	3394.47
414.70	3428.38
414.92	3427.81
415.13	3400.61
415.35	3414.46
415.56	3431.90
415.78	3396.60
415.99	3423.47
416.21	3421.42
416.42	3449.43
416.63	3432.07
416.85	3441.90
417.06	3420.11
417.28	3431.49
417.49	3436.41
417.71	3427.64
417.92	3394.06
418.14	3392.42
418.35	3423.38
418.57	3438.95
418.78	3431.25
418.99	3397.42
419.21	3443.86
419.42	3422.16
419.64	3400.12
419.85	3421.66
420.07	3438.46
420.28	3410.77
420.50	3451.48
420.71	3402.90
420.92	3394.55
421.14	3413.64
421.35	3386.44
421.57	3399.46
421.78	3429.28
422.00	3396.11
422.21	3411.51
422.42	3407.82
422.64	3422.48
422.85	3422.81
423.07	3407.33
423.28	3385.05
423.50	3392.75
423.71	3373.82
423.92	3432.56
424.14	3399.05
424.35	3415.60
424.57	3418.55
424.78	3465.90
424.99	3371.12
425.21	3387.18
425.42	3400.77
425.64	3400.45
425.85	3392.42
426.06	3452.63
426.28	3378.00
426.49	3382.18
426.71	3425.51
426.92	3381.36
427.13	3425.51
427.35	3426.99
427.56	3421.42
427.78	3390.94
427.99	3409.87
428.20	3423.30
428.42	3406.26
428.63	3409.62
428.84	3396.27
429.06	3412.74
429.27	3427.23
429.49	3394.39
429.70	3363.83
429.91	3416.59
430.13	3411.51
430.34	3355.39
430.56	3417.32
430.77	3409.21
430.98	3404.38
431.20	3443.62
431.41	3413.80
431.62	3377.92
431.84	3390.54
432.05	3391.44
432.26	3429.86
432.48	3394.06
432.69	3448.70
432.91	3418.22
433.12	3398.56
433.33	3411.18
433.55	3449.43
433.76	3387.75
433.97	3434.77
434.19	3385.29
434.40	3390.54
434.61	3408.97
434.83	3421.83
435.04	3408.72
435.25	3395.61
435.47	3404.22
435.68	3420.93
435.89	3408.88
436.11	3377.51
436.32	3436.08
436.53	3410.28
436.75	3374.81
436.96	3392.26
437.17	3393.16
437.39	3376.61
437.60	3382.26
437.81	3367.27
438.03	3402.90
438.24	3374.48
438.45	3417.16
438.67	3385.54
438.88	3435.92
439.09	3419.29
439.31	3429.69
439.52	3415.68
439.73	3415.52
439.94	3396.76
440.16	3396.27
440.37	3406.76
440.58	3414.05
440.80	3368.50
441.01	3406.76
441.22	3405.61
441.44	3356.13
441.65	3430.35
441.86	3399.38
442.08	3435.51
442.29	3441.57
442.50	3403.72
442.71	3407.90
442.93	3402.33
443.14	3388.08
443.35	3417.98
443.57	3416.18
443.78	3380.13
443.99	3394.79
444.20	3415.93
444.42	3406.02
444.63	3395.53
444.84	3397.91
445.06	3422.16
445.27	3413.96
445.48	3397.09
445.69	3439.44
445.91	3393.81
446.12	3402.17
446.33	3400.12
446.54	3391.27
446.76	3382.18
446.97	3371.04
447.18	3357.77
447.39	3424.29
447.61	3405.61
447.82	3397.09
448.03	3392.99
448.25	3378.74
448.46	3383.82
448.67	3420.19
448.88	3387.42
449.10	3413.23
449.31	3405.61
449.52	3416.67
449.73	3399.05
449.95	3405.94
450.16	3401.27
450.37	3425.10
450.58	3375.54
450.79	3375.05
451.01	3377.18
451.22	3424.29
451.43	3412.74
451.64	3409.70
451.86	3419.04
452.07	3344.91
452.28	3331.31
452.49	3434.85
452.71	3416.67
452.92	3420.27
453.13	3391.27
453.34	3470.24
453.55	3411.59
453.77	3396.11
453.98	3404.05
454.19	3421.50
454.40	3366.61
454.62	3408.48
454.83	3383.74
455.04	3371.78
455.25	3406.43
455.46	3418.63
455.68	3416.91
455.89	3386.60
456.10	3365.39
456.31	3400.04
456.52	3386.52
456.74	3431.08
456.95	3386.28
457.16	3416.42
457.37	3366.53
457.58	3406.35
457.80	3411.42
458.01	3378.00
458.22	3416.18
458.43	3391.68
458.64	3381.77
458.86	3394.63
459.07	3379.97
459.28	3430.43
459.49	3408.72
459.70	3407.90
459.91	3418.88
460.13	3400.94
460.34	3367.27
460.55	3401.43
460.76	3367.68
460.97	3436.82
461.19	3393.98
461.40	3390.78
461.61	3399.79
461.82	3412.00
462.03	3399.63
462.24	3393.16
462.46	3386.11
462.67	3394.88
462.88	3391.60
463.09	3410.20
463.30	3369.15
463.51	3403.48
463.72	3392.34
463.94	3375.05
464.15	3396.35
464.36	3374.64
464.57	3393.32
464.78	3439.36
464.99	3375.05
465.20	3393.65
465.42	3407.82
465.63	3428.22
465.84	3358.91
466.05	3406.84
466.26	3395.53
466.47	3385.70
466.68	3380.79
466.90	3389.39
467.11	3394.39
467.32	3412.57
467.53	3371.20
467.74	3392.75
467.95	3377.51
468.16	3400.86
468.37	3399.14
468.59	3381.61
468.80	3413.47
469.01	3436.98
469.22	3326.97
469.43	3390.54
469.64	3429.20
469.85	3436.82
470.06	3403.81
470.28	3404.63
470.49	3389.47
470.70	3353.92
470.91	3390.70
471.12	3399.55
471.33	3384.23
471.54	3400.20
471.75	3387.50
471.96	3398.48
472.17	3382.10
472.39	3417.81
472.60	3345.56
472.81	3416.50
473.02	3381.77
473.23	3374.07
473.44	3426.50
473.65	3446.32
473.86	3394.47
474.07	3386.85
474.28	3435.26
474.49	3378.90
474.71	3383.08
474.92	3386.36
475.13	3380.30
475.34	3409.70
475.55	3363.42
475.76	3433.62
475.97	3414.37
476.18	3391.11
476.39	3402.82
476.60	3403.40
476.81	3405.28
477.02	3366.04
477.23	3365.88
477.44	3393.89
477.65	3375.22
477.87	3410.61
478.08	3369.32
478.29	3444.03
478.50	3357.28
478.71	3389.96
478.92	3401.84
479.13	3363.26
479.34	3390.29
479.55	3354.98
479.76	3398.73
479.97	3371.20
480.18	3356.70
480.39	3402.66
480.60	3399.87
480.81	3411.59
481.02	3326.56
481.23	3382.43
481.44	3373.66
481.65	3438.38
481.86	3394.55
482.07	3395.94
482.28	3388.98
482.49	3390.13
482.71	3377.35
482.92	3363.58
483.13	3373.99
483.34	3428.30
483.55	3397.74
483.76	3376.94
483.97	3402.90
484.18	3407.66
484.39	3346.14
484.60	3393.16
484.81	3385.78
485.02	3406.84
485.23	3378.00
485.44	3398.81
485.65	3380.05
485.86	3383.00
486.07	3388.24
486.28	3379.07
486.49	3397.50
486.70	3448.45
486.91	3376.77
487.12	3380.30
487.33	3406.10
487.54	3392.26
487.75	3400.37
487.96	3403.89
488.17	3319.92
488.38	3381.28
488.59	3360.14
488.80	3391.19
489.01	3383.41
489.22	3439.19
489.43	3413.14
489.64	3387.75
489.85	3337.12
490.06	3397.91
490.26	3352.20
490.47	3370.06
490.68	3380.87
490.89	3430.43
491.10	3405.12
491.31	3375.79
491.52	3415.85
491.73	3383.57
491.94	3352.52
492.15	3391.52
492.36	3402.00
492.57	3390.70
492.78	3353.84
492.99	3402.50
493.20	3420.93
493.41	3440.26
493.62	3355.72
493.83	3405.77
494.04	3386.85
494.25	3415.27
494.46	3377.84
494.67	3366.53
494.88	3363.42
495.08	3404.05
495.29	3406.35
495.50	3412.16
495.71	3396.35
495.92	3386.68
496.13	3333.11
496.34	3402.17
496.55	3390.62
496.76	3346.63
496.97	3358.75
497.18	3384.72
497.39	3377.35
497.60	3459.76
497.81	3388.57
498.02	3404.46
498.22	3358.91
498.43	3411.34
498.64	3347.53
498.85	3397.42
499.06	3372.19
499.27	3384.88
499.48	3357.93
499.69	3405.03
499.90	3393.07
500.11	3392.83
500.32	3397.33
500.52	3394.06
500.73	3383.16
500.94	3433.46
501.15	3380.46
501.36	3382.51
501.57	3405.69
501.78	3422.89
501.99	3366.45
502.20	3380.21
502.41	3375.95
502.61	3424.94
502.82	3395.61
503.03	3380.62
503.24	3420.52
503.45	3370.47
503.66	3352.77
503.87	3454.35
504.08	3399.14
504.28	3429.69
504.49	3434.53
504.70	3400.77
504.91	3381.77
505.12	3404.87
505.33	3439.44
505.54	3404.46
505.75	3396.52
505.95	3421.42
506.16	3366.94
506.37	3383.24
506.58	3378.82
506.79	3439.85
507.00	3416.26
507.21	3366.53
507.41	3391.93
507.62	3417.57
507.83	3414.05
508.04	3408.88
508.25	3370.96
508.46	3380.87
508.67	3350.64
508.87	3394.63
509.08	3392.58
509.29	3370.96
509.50	3372.68
509.71	3353.26
509.92	3389.14
510.12	3411.67
510.33	3366.21
510.54	3360.31
510.75	3388.49
510.96	3422.24
511.17	3419.12
511.37	3393.24
511.58	3382.18
511.79	3399.46
512.00	3357.44
512.21	3396.19
512.42	3403.07
512.62	3401.68
512.83	3364.48
513.04	3361.04
513.25	3401.68
513.46	3387.75
513.66	3391.85
513.87	3396.35
514.08	3393.89
514.29	3424.86
514.50	3393.07
514.71	3397.01
514.91	3392.75
515.12	3425.68
515.33	3371.53
515.54	3378.00
515.75	3443.05
515.95	3429.77
516.16	3362.68
516.37	3434.69
516.58	3425.92
516.78	3429.36
516.99	3401.59
517.20	3400.94
517.41	3430.51
517.62	3360.06
517.82	3392.09
518.03	3381.77
518.24	3397.01
518.45	3399.55
518.66	3441.82
518.86	3434.61
519.07	3392.26
519.28	3417.32
519.49	3386.03
519.69	3386.03
519.90	3387.42
520.11	3401.76
520.32	3401.59
520.52	3393.65
520.73	3363.67
520.94	3434.36
521.15	3388.73
521.36	3418.63
521.56	3441.41
521.77	3391.35
521.98	3375.87
522.19	3382.18
522.39	3425.02
522.60	3425.10
522.81	3359.24
523.02	3400.86
523.22	3400.37
523.43	3412.00
523.64	3384.31
523.84	3422.65
524.05	3439.52
524.26	3384.06
524.47	3352.69
524.67	3395.37
524.88	3435.34
525.09	3417.98
525.30	3372.35
525.50	3393.40
525.71	3390.62
525.92	3417.40
526.13	3362.44
526.33	3387.01
526.54	3397.50
526.75	3365.30
526.95	3376.61
527.16	3367.93
527.37	3488.43
527.58	3445.75
527.78	3369.48
527.99	3388.16
528.20	3362.93
528.40	3385.21
528.61	3384.72
528.82	3386.77
529.03	3397.17
529.23	3454.60
529.44	3370.14
529.65	3391.68
529.85	3408.88
530.06	3386.03
530.27	3339.17
530.47	3383.41
530.68	3381.93
530.89	3397.66
531.09	3427.23
531.30	3385.29
531.51	3428.22
531.72	3419.04
531.92	3367.93
532.13	3355.56
532.34	3387.75
532.54	3386.36
532.75	3370.71
532.96	3411.26
533.16	3370.96
533.37	3428.71
533.58	3394.22
533.78	3422.48
533.99	3399.87
534.20	3415.44
534.40	3404.05
534.61	3417.65
534.82	3340.73
535.02	3392.01
535.23	3414.21
535.44	3413.23
535.64	3372.19
535.85	3408.23
536.06	3368.25
536.26	3402.09
536.47	3407.66
536.68	3409.05
536.88	3379.97
537.09	3421.50
537.29	3406.92
537.50	3389.22
537.71	3383.08
537.91	3415.52
538.12	3383.41
538.33	3440.67
538.53	3385.37
538.74	3388.73
538.95	3366.45
539.15	3389.06
539.36	3417.49
539.56	3411.67
539.77	3406.02
539.98	3389.39
540.18	3362.27
540.39	3406.43
540.60	3376.61
540.80	3394.63
541.01	3404.95
541.21	3393.89
541.42	3396.84
541.63	3419.70
541.83	3381.77
542.04	3389.72
542.25	3452.47
542.45	3401.51
542.66	3352.69
542.86	3405.28
543.07	3424.20
543.28	3394.63
543.48	3338.52
543.69	3408.88
543.89	3365.80
544.10	3440.10
544.31	3375.63
544.51	3370.38
544.72	3416.59
544.92	3423.63
545.13	3347.86
545.33	3377.26
545.54	3382.10
545.75	3417.40
545.95	3340.56
546.16	3380.62
546.36	3392.75
546.57	3402.82
546.78	3343.92
546.98	3389.39
547.19	3416.34
547.39	3392.42
547.60	3425.60
547.80	3399.79
548.01	3427.07
548.22	3377.92
548.42	3387.34
548.63	3382.10
548.83	3379.48
549.04	3443.21
549.24	3383.98
549.45	3411.92
549.65	3373.17
549.86	3367.68
550.07	3339.42
550.27	3384.47
550.48	3369.32
550.68	3402.90
550.89	3363.83
551.09	3399.14
551.30	3387.18
551.50	3417.90
551.71	3374.32
551.91	3396.84
552.12	3421.42
552.33	3427.15
552.53	3395.12
552.74	3375.38
552.94	3408.15
553.15	3412.65
553.35	3429.53
553.56	3376.04
553.76	3399.87
553.97	3387.34
554.17	3377.10
554.38	3413.47
554.58	3394.14
554.79	3398.15
554.99	3385.05
555.20	3416.26
555.40	3357.19
555.61	3413.06
555.81	3372.76
556.02	3368.83
556.22	3405.12
556.43	3414.21
556.63	3399.87
556.84	3396.27
557.04	3375.30
557.25	3395.70
557.45	3376.36
557.66	3338.52
557.86	3362.52
558.07	3465.33
558.27	3385.21
558.48	3422.81
558.68	3363.67
558.89	3401.43
559.09	3371.04
559.30	3420.52
559.50	3356.46
559.71	3412.90
559.91	3368.34
560.12	3424.70
560.32	3419.53
560.53	3369.15
560.73	3415.60
560.94	3361.78
561.14	3380.87
561.35	3393.24
561.55	3377.10
561.76	3387.42
561.96	3378.41
562.17	3383.98
562.37	3391.03
562.57	3367.84
562.78	3373.74
562.98	3404.71
563.19	3380.38
563.39	3345.56
563.60	3390.45
563.80	3400.94
564.01	3419.53
564.21	3375.63
564.42	3361.86
564.62	3418.88
564.82	3411.83
565.03	3336.39
565.23	3366.94
565.44	3429.86
565.64	3403.48
565.85	3378.41
566.05	3415.60
566.25	3389.14
566.46	3363.99
566.66	3422.40
566.87	3375.54
567.07	3403.64
567.28	3340.24
567.48	3378.25
567.68	3408.07
567.89	3381.93
568.09	3392.26
568.30	3375.95
568.50	3391.52
568.71	3394.96
568.91	3410.85
569.11	3343.92
569.32	3378.00
569.52	3431.82
569.73	3368.17
569.93	3388.81
570.13	3369.07
570.34	3397.17
570.54	3361.78
570.75	3381.69
570.95	3381.44
571.15	3376.94
571.36	3351.30
571.56	3386.36
571.77	3376.77
571.97	3397.91
572.17	3366.70
572.38	3385.62
572.58	3374.81
572.79	3426.01
572.99	3404.13
573.19	3394.47
573.40	3387.67
573.60	3392.50
573.81	3366.29
574.01	3396.35
574.21	3375.54
574.42	3386.36
574.62	3400.12
574.82	3386.03
575.03	3368.50
575.23	3427.48
575.43	3347.36
575.64	3412.00
575.84	3380.70
576.05	3393.40
576.25	3381.61
576.45	3393.98
576.66	3355.39
576.86	3384.06
577.06	3379.31
577.27	3355.39
577.47	3401.59
577.67	3391.11
577.88	3366.53
578.08	3359.98
578.28	3388.32
578.49	3452.55
578.69	3358.42
578.89	3387.26
579.10	3396.35
579.30	3420.60
579.50	3390.62
579.71	3399.79
579.91	3363.91
580.11	3418.88
580.32	3375.30
580.52	3365.39
580.72	3404.63
580.93	3373.41
581.13	3363.58
581.33	3389.96
581.54	3401.18
581.74	3362.93
581.94	3413.72
582.15	3393.73
582.35	3408.64
582.55	3424.04
582.76	3358.01
582.96	3389.80
583.16	3344.01
583.37	3386.28
583.57	3379.97
583.77	3397.42
583.97	3404.79
584.18	3404.54
584.38	3384.39
584.58	3381.69
584.79	3364.98
584.99	3435.67
585.19	3366.53
585.40	3360.39
585.60	3382.59
585.80	3407.41
586.00	3410.03
586.21	3408.31
586.41	3400.45
586.61	3395.61
586.82	3390.62
587.02	3357.19
587.22	3425.35
587.42	3416.50
587.63	3377.59
587.83	3369.73
588.03	3376.69
588.23	3382.75
588.44	3334.26
588.64	3374.07
588.84	3360.23
589.05	3385.87
589.25	3394.79
589.45	3411.10
589.65	3408.72
589.86	3368.99
590.06	3353.75
590.26	3349.58
590.46	3430.76
590.67	3363.42
590.87	3365.30
591.07	3377.84
591.27	3403.40
591.48	3409.13
591.68	3367.11
591.88	3382.92
592.08	3360.39
592.29	3396.27
592.49	3368.50
592.69	3402.17
592.89	3377.92
593.10	3417.65
593.30	3350.23
593.50	3431.08
593.70	3417.73
593.90	3371.53
594.11	3386.93
594.31	3406.92
594.51	3432.89
594.71	3425.19
594.92	3391.11
595.12	3381.44
595.32	3375.05
595.52	3409.46
595.72	3354.08
595.93	3380.87
596.13	3439.03
596.33	3388.98
596.53	3371.37
596.73	3453.86
596.94	3415.68
597.14	3378.82
597.34	3375.71
597.54	3355.06
597.74	3402.58
597.95	3385.95
598.15	3396.76
598.35	3403.07
598.55	3394.14
598.75	3489.41
598.96	3389.22
599.16	3374.97
599.36	3364.48
599.56	3414.37
599.76	3343.27
599.97	3405.36
600.17	3350.80
600.37	3350.89
600.57	3391.68
600.77	3372.59
600.97	3371.94
601.18	3384.15
601.38	3408.80
601.58	3377.59
601.78	3366.37
601.98	3427.97
602.18	3391.60
602.39	3397.42
602.59	3407.57
602.79	3395.04
602.99	3402.90
603.19	3404.30
603.39	3389.88
603.60	3400.61
603.80	3374.32
604.00	3448.86
604.20	3375.13
604.40	3421.50
604.60	3390.78
604.80	3419.37
605.01	3393.81
605.21	3365.06
605.41	3391.85
605.61	3394.39
605.81	3398.65
606.01	3411.34
606.21	3393.81
606.42	3383.41
606.62	3403.97
606.82	3407.41
607.02	3383.65
607.22	3364.73
607.42	3397.91
607.62	3393.73
607.82	3386.44
608.03	3424.37
608.23	3408.80
608.43	3404.38
608.63	3391.85
608.83	3366.53
609.03	3423.96
609.23	3409.13
609.43	3379.64
609.63	3377.02
609.84	3417.98
610.04	3415.60
610.24	3368.99
610.44	3419.62
610.64	3394.14
610.84	3387.18
611.04	3382.43
611.24	3382.75
611.44	3373.33
611.64	3418.39
611.85	3371.12
612.05	3412.16
612.25	3351.54
612.45	3435.43
612.65	3384.06
612.85	3362.19
613.05	3403.15
613.25	3375.22
613.45	3349.90
613.65	3445.42
613.85	3365.39
614.05	3408.39
614.25	3401.43
614.46	3433.62
614.66	3406.84
614.86	3433.54
615.06	3353.26
615.26	3404.87
615.46	3404.22
615.66	3416.26
615.86	3420.68
616.06	3399.71
616.26	3402.25
616.46	3413.23
616.66	3351.79
616.86	3388.41
617.06	3436.25
617.26	3387.01
617.46	3406.67
617.66	3424.20
617.86	3412.57
618.07	3386.03
618.27	3374.89
618.47	3405.69
618.67	3406.92
618.87	3406.10
619.07	3380.21
619.27	3410.61
619.47	3401.51
619.67	3415.85
619.87	3390.78
620.07	3389.72
620.27	3412.33
620.47	3406.43
620.67	3436.57
620.87	3401.18
621.07	3414.29
621.27	3460.82
621.47	3377.59
621.67	3429.12
621.87	3395.94
622.07	3395.61
622.27	3449.60
622.47	3410.93
622.67	3419.94
622.87	3448.29
623.07	3453.12
623.27	3450.01
623.47	3500.31
623.67	3469.67
623.87	3526.77
624.07	3543.07
624.27	3556.09
624.47	3576.08
624.67	3601.56
624.87	3613.68
625.07	3664.06
625.27	3727.96
625.47	3761.87
625.67	3816.59
625.87	3866.89
626.07	3906.30
626.27	4006.97
626.47	4045.31
626.67	4110.85
626.87	4146.15
627.07	4230.20
627.27	4260.27
627.47	4339.81
627.67	4392.57
627.87	4470.22
628.07	4547.80
628.27	4589.01
628.47	4660.03
628.67	4687.31
628.86	4754.56
629.06	4825.67
629.26	4922.25
629.46	4933.97
629.66	5048.57
629.86	5034.81
630.06	5090.59
630.26	5146.14
630.46	5194.88
630.66	5262.62
630.86	5354.70
631.06	5367.23
631.26	5428.18
631.46	5491.42
631.66	5508.71
631.86	5547.21
632.06	5598.33
632.26	5673.12
632.45	5709.98
632.65	5741.52
632.85	5806.97
633.05	5807.79
633.25	5888.57
633.45	5880.29
633.65	5948.12
633.85	6069.03
634.05	6013.74
634.25	6119.00
634.45	6148.17
634.65	6202.97
634.84	6259.41
635.04	6269.57
635.24	6310.86
635.44	6427.51
635.64	6441.52
635.84	6432.51
636.04	6529.66
636.24	6553.25
636.44	6596.84
636.64	6618.13
636.84	6656.64
637.03	6715.37
637.23	6743.88
637.43	6761.08
637.63	6875.19
637.83	6913.86
638.03	6991.03
638.23	7002.01
638.43	7043.46
638.62	7133.81
638.82	7145.12
639.02	7249.32
639.22	7279.79
639.42	7327.80
639.62	7377.03
639.82	7417.58
640.02	7538.41
640.21	7608.04
640.41	7544.96
640.61	7635.65
640.81	7691.35
641.01	7708.55
641.21	7748.69
641.41	7896.07
641.61	7909.34
641.80	7973.56
642.00	8096.11
642.20	8105.12
642.40	8071.70
642.60	8207.60
642.80	8265.77
642.99	8282.72
643.19	8370.70
643.39	8421.33
643.59	8507.92
643.79	8568.54
643.99	8647.59
644.19	8769.73
644.38	8745.89
644.58	8842.47
644.78	8893.67
644.98	8913.99
645.18	8983.46
645.38	9179.90
645.57	9129.52
645.77	9237.57
645.97	9270.50
646.17	9355.69
646.37	9461.78
646.56	9464.40
646.76	9636.27
646.96	9641.92
647.16	9660.60
647.36	9798.96
647.55	9836.89
647.75	9859.17
647.95	9981.55
648.15	10077.07
648.35	10173.00
648.55	10218.71
648.74	10326.43
648.94	10430.47
649.14	10535.16
649.34	10524.43
649.54	10665.58
649.73	10742.33
649.93	10773.38
650.13	10835.56
650.33	10877.66
650.52	11084.84
650.72	11137.10
650.92	11195.10
651.12	11204.93
651.32	11366.80
651.51	11453.14
651.71	11608.71
651.91	11596.42
652.11	11659.33
652.30	11734.12
652.50	11898.04
652.70	12023.79
652.90	12011.01
653.10	12168.87
653.29	12189.43
653.49	12315.09
653.69	12382.76
653.89	12474.91
654.08	12578.38
654.28	12735.50
654.48	12789.24
654.68	12916.78
654.87	13009.68
655.07	13003.86
655.27	13249.29
655.47	13200.22
655.66	13338.83
655.86	13387.98
656.06	13600.07
656.26	13578.77
656.45	13744.57
656.65	13867.12
656.85	13887.52
657.04	13973.29
657.24	14105.59
657.44	14185.54
657.64	14425.24
657.83	14321.36
658.03	14532.14
658.23	14660.43
658.43	14742.75
658.62	14890.54
658.82	14915.19
659.02	14977.61
659.21	15151.77
659.41	15273.75
659.61	15399.99
659.81	15462.66
660.00	15506.81
660.20	15751.09
660.40	15754.20
660.59	15911.16
660.79	15959.33
660.99	16131.11
661.19	16279.14
661.38	16393.25
661.58	16288.64
661.78	16570.85
661.97	16523.91
662.17	16832.01
662.37	16800.63
662.56	16883.37
662.76	16975.69
662.96	17171.73
663.15	17413.80
663.35	17406.83
663.55	17467.62
663.74	17556.09
663.94	17753.43
664.14	17723.86
664.33	17929.80
664.53	18029.01
664.73	18319.41
664.93	18190.88
665.12	18483.16
665.32	18507.00
665.52	18602.27
665.71	18730.80
665.91	18873.51
666.10	18903.65
666.30	19179.56
666.50	19162.68
666.69	19250.17
666.89	19466.35
667.09	19634.12
667.28	19623.64
667.48	19740.04
667.68	19806.72
667.87	20026.35
668.07	20001.36
668.27	20292.01
668.46	20374.01
668.66	20412.68
668.86	20740.03
669.05	20726.26
669.25	20910.50
669.44	20887.97
669.64	20958.58
669.84	21110.95
670.03	21294.21
670.23	21336.23
670.43	21505.06
670.62	21533.98
670.82	21621.47
671.01	21894.10
671.21	21873.21
671.41	21996.09
671.60	22266.91
671.80	22407.97
672.00	22422.06
672.19	22668.23
672.39	22675.44
672.58	22746.38
672.78	22844.52
672.98	23174.73
673.17	23193.57
673.37	23001.15
673.56	23248.46
673.76	23342.42
673.96	23616.52
674.15	23678.70
674.35	23785.03
674.54	23865.55
674.74	23966.72
674.94	23995.07
675.13	24118.85
675.33	24061.26
675.52	24408.76
675.72	24381.89
675.91	24530.65
676.11	24834.98
676.31	24642.31
676.50	24807.54
676.70	24947.62
676.89	25133.41
677.09	25381.87
677.28	25473.54
677.48	25314.12
677.68	25640.73
677.87	25521.30
678.07	25699.30
678.26	25862.24
678.46	26000.19
678.65	25958.99
678.85	26289.53
679.04	26062.12
679.24	26362.44
679.44	26344.41
679.63	26709.12
679.83	26701.58
680.02	26808.65
680.22	26805.29
680.41	26986.25
680.61	27087.83
680.80	27182.77
681.00	27358.00
681.19	27499.71
681.39	27521.83
681.59	27605.47
681.78	27606.62
681.98	27882.36
682.17	27730.73
682.37	28013.75
682.56	27884.65
682.76	28207.74
682.95	28116.81
683.15	28221.01
683.34	28254.92
683.54	28418.19
683.73	28509.85
683.93	28431.05
684.12	28605.21
684.32	28804.19
684.51	28654.69
684.71	28966.88
684.90	29027.58
685.10	29034.46
685.29	29189.13
685.49	29348.87
685.68	29362.22
685.88	29479.20
686.07	29397.61
686.27	29706.28
686.46	29730.36
686.66	29654.75
686.85	30024.86
687.05	29993.16
687.24	29976.04
687.44	30289.79
687.63	30226.22
687.83	30048.70
688.02	30416.92
688.22	30583.05
688.41	30544.63
688.61	30679.64
688.80	30832.09
689.00	30697.99
689.19	30742.88
689.39	31109.14
689.58	31110.69
689.77	31311.31
689.97	31410.52
690.16	31359.89
690.36	31282.72
690.55	31323.11
690.75	31839.69
690.94	31666.27
691.14	31846.98
691.33	31687.65
691.53	32014.99
691.72	31965.52
691.91	32102.73
692.11	32164.17
692.30	32366.26
692.50	32415.09
692.69	32269.11
692.89	32497.58
693.08	32445.07
693.28	32538.13
693.47	32760.62
693.66	32746.36
693.86	32806.49
694.05	32817.06
694.25	32934.37
694.44	32954.93
694.64	32914.87
694.83	33017.76
695.02	32996.95
695.22	33304.07
695.41	33125.73
695.61	33171.69
695.80	33245.82
695.99	33350.02
696.19	33379.35
696.38	33396.88
696.58	33281.13
696.77	33802.87
696.96	33682.61
697.16	33604.96
697.35	33774.12
697.55	33696.13
697.74	33672.78
697.93	34196.65
698.13	33875.86
698.32	34174.62
698.52	34030.44
698.71	33933.37
698.90	34568.07
699.10	34373.76
699.29	34434.63
699.49	34654.01
699.68	34444.54
699.87	34471.16
700.07	34780.16
700.26	34702.91
700.45	34818.34
700.65	34618.21
700.84	35154.69
701.04	34888.87
701.23	35114.80
701.42	35151.75
701.62	35202.70
701.81	35336.39
702.00	35287.98
702.20	35149.04
702.39	35376.94
702.58	35671.36
702.78	35448.78
702.97	35640.06
703.17	35739.27
703.36	35788.91
703.55	35661.28
703.75	35836.59
703.94	35941.20
704.13	35735.74
704.33	35783.09
704.52	36176.47
704.71	36145.83
704.91	36136.24
705.10	36019.10
705.29	36107.74
705.49	36274.11
705.68	36285.25
705.87	36308.93
706.07	36197.19
706.26	36492.92
706.45	36294.68
706.65	36179.50
706.84	36671.75
707.03	36950.84
707.23	36519.71
707.42	36475.22
707.61	36815.92
707.80	36732.94
708.00	36770.38
708.19	36772.43
708.38	37254.11
708.58	36803.72
708.77	37373.46
708.96	36856.39
709.16	36946.91
709.35	37509.20
709.54	37274.26
709.74	37140.40
709.93	36966.41
710.12	37582.03
710.31	37787.24
710.51	37455.30
710.70	37674.76
710.89	37739.64
711.09	37389.77
711.28	37339.22
711.47	37736.61
711.66	37749.88
711.86	37724.49
712.05	37780.19
712.24	38164.55
712.43	37883.57
712.63	37677.71
712.82	38191.91
713.01	38217.31
713.21	37874.72
713.40	38029.80
713.59	38448.81
713.78	38065.92
713.98	38428.25
714.17	38332.08
714.36	38415.55
714.55	38071.90
714.75	38238.53
714.94	38425.96
715.13	38681.62
715.32	38192.81
715.52	38646.15
715.71	38454.71
715.90	38518.85
716.09	38417.35
716.29	38879.29
716.48	38821.62
716.67	38246.55
716.86	38689.00
717.06	38696.78
717.25	38828.83
717.44	38902.64
717.63	39016.34
717.82	38635.83
718.02	38940.90
718.21	39014.95
718.40	39156.10
718.59	39099.00
718.79	38975.79
718.98	38912.06
719.17	39275.21
719.36	39326.49
719.55	39117.35
719.75	39157.98
719.94	39189.44
720.13	39568.72
720.32	39481.64
720.51	39358.93
720.71	39444.53
720.90	39218.19
721.09	39433.64
721.28	39273.32
721.47	39702.09
721.67	39537.59
721.86	39681.85
722.05	39812.18
722.24	39492.62
722.43	39889.93
722.63	39587.15
722.82	39646.55
723.01	39880.34
723.20	39545.05
723.39	39738.21
723.58	39977.25
723.78	39583.96
723.97	40200.89
724.16	39701.02
724.35	39998.96
724.54	39740.67
724.73	40032.14
724.93	39874.44
725.12	40162.14
725.31	39556.93
725.50	40064.99
725.69	40343.59
725.88	39954.31
726.08	39837.83
726.27	40361.53
726.46	39796.54
726.65	40518.00
726.84	40032.14
727.03	40254.14
727.23	40580.83
727.42	40213.42
727.61	40416.01
727.80	40092.43
727.99	40411.58
728.18	40456.07
728.37	40346.95
728.56	40226.20
728.76	40119.54
728.95	40346.79
729.14	40368.74
729.33	40274.94
729.52	40413.88
729.71	40468.35
729.90	40539.38
730.09	40340.81
730.29	40590.49
730.48	40148.79
730.67	40714.44
730.86	40425.51
731.05	40932.42
731.24	40603.52
731.43	40822.32
731.62	40546.59
731.81	40554.53
732.01	41026.22
732.20	40548.06
732.39	40854.76
732.58	40740.73
732.77	40195.65
732.96	40764.24
733.15	40929.88
733.34	40568.46
733.53	40795.62
733.72	40889.01
733.92	40838.14
734.11	40741.80
734.30	40907.44
734.49	41189.32
734.68	40995.75
734.87	40976.00
735.06	41079.47
735.25	41125.18
735.44	40946.76
735.63	41068.98
735.82	41243.96
736.01	41035.56
736.20	40968.96
736.40	41506.26
736.59	41279.43
736.78	41582.86
736.97	41090.94
737.16	41299.58
737.35	41409.85
737.54	41550.42
737.73	41372.66
737.92	41565.33
738.11	41755.46
738.30	41465.22
738.49	41481.77
738.68	41349.72
738.87	41633.73
739.06	41337.43
739.25	41500.78
739.44	41540.34
739.63	41326.13
739.82	41270.83
740.01	41569.01
740.20	41409.27
740.39	41482.92
740.59	41660.11
740.78	41830.74
740.97	41681.24
741.16	41549.19
741.35	41815.75
741.54	41722.20
741.73	41817.64
741.92	41564.75
742.11	41567.54
742.30	41778.97
742.49	41357.34
742.68	41837.05
742.87	41720.65
743.06	41433.77
743.25	41641.92
743.44	41598.51
743.63	42056.92
743.82	41700.74
744.01	41793.72
744.20	41714.99
744.39	41944.28
744.58	42097.31
744.77	41888.66
744.96	41578.43
745.15	42030.79
745.34	41846.39
745.53	41966.07
745.72	41685.18
745.91	41837.79
746.10	41491.85
746.29	41993.84
746.48	42004.99
746.67	41888.83
746.86	41961.08
747.04	41922.08
747.23	41739.65
747.42	42158.34
747.61	41826.16
747.80	42453.16
747.99	41676.82
748.18	42212.81
748.37	42046.11
748.56	41618.74
748.75	41960.59
748.94	41916.84
749.13	41968.61
749.32	41717.45
749.51	41963.37
749.70	42088.22
749.89	41877.44
750.08	42182.67
750.27	41804.20
750.46	42075.11
750.65	42435.47
750.84	41978.61
751.02	42320.37
751.21	42178.82
751.40	42338.31
751.59	42297.11
751.78	42281.13
751.97	42275.81
752.16	42081.17
752.35	42461.60
752.54	42028.50
752.73	42553.60
752.92	42108.94
753.11	42217.32
753.30	42304.24
753.49	42445.05
753.67	42329.38
753.86	42178.82
754.05	42458.57
754.24	42131.71
754.43	42323.90
754.62	42432.68
754.81	42187.83
755.00	42420.56
755.19	42373.78
755.38	41957.23
755.56	42308.66
755.75	42673.77
755.94	42225.10
756.13	42299.16
756.32	42352.98
756.51	42139.41
756.70	42367.15
756.89	42263.11
757.08	42377.80
757.26	42324.71
757.45	42428.34
757.64	42153.83
757.83	42720.14
758.02	42351.91
758.21	42395.98
758.40	42587.84
758.59	42609.79
758.77	42496.50
758.96	42538.85
759.15	42721.94
759.34	42224.45
759.53	42511.00
759.72	42511.90
759.91	42195.20
760.09	42569.41
760.28	42650.83
760.47	42206.34
760.66	42659.19
760.85	42278.92
761.04	42756.43
761.23	42664.27
761.41	42633.63
761.60	42919.28
761.79	42674.59
761.98	42443.82
762.17	42908.80
762.36	42463.08
762.54	42893.89
762.73	42562.36
762.92	42295.22
763.11	42669.35
763.30	42879.47
763.49	42672.71
763.67	42597.75
763.86	42605.12
764.05	42908.30
764.24	42798.37
764.43	43238.03
764.61	42747.66
764.80	42917.07
764.99	43433.98
765.18	42934.85
765.37	43159.55
765.55	43211.81
765.74	43114.66
765.93	42822.70
766.12	43153.40
766.31	43023.24
766.49	42980.97
766.68	43059.12
766.87	42973.02
767.06	42867.84
767.25	43013.16
767.43	43107.69
767.62	42921.49
767.81	43099.91
768.00	43102.45
768.19	42854.48
768.37	43138.50
768.56	43164.63
768.75	43382.45
768.94	43380.81
769.12	43130.22
769.31	43192.40
769.50	43207.55
769.69	43473.13
769.88	42860.95
770.06	43621.41
770.25	43101.47
770.44	43140.71
770.63	43375.49
770.81	43117.36
771.00	42891.26
771.19	43223.69
771.38	43010.87
771.56	43422.51
771.75	42699.25
771.94	43256.46
772.13	43176.92
772.31	42984.08
772.50	43431.27
772.69	43267.27
772.88	43578.24
773.06	43035.52
773.25	43234.59
773.44	43364.02
773.62	43221.56
773.81	43426.60
774.00	43279.15
774.19	43349.27
774.37	43165.69
774.56	43534.33
774.75	42988.01
774.94	43423.33
775.12	43215.83
775.31	43474.20
775.50	43593.06
775.68	43409.81
775.87	43447.74
776.06	43337.15
776.25	43652.70
776.43	43401.13
776.62	43828.01
776.81	43424.56
776.99	43711.11
777.18	43640.00
777.37	43234.01
777.55	43365.74
777.74	43597.40
777.93	43528.67
778.12	43513.60
778.30	43289.88
778.49	43326.42
778.68	43549.56
778.86	43459.54
779.05	43819.90
779.24	43680.55
779.42	43660.48
779.61	43395.47
779.80	43697.43
779.98	43848.57
780.17	43993.48
780.36	43554.48
780.54	44000.94
780.73	43324.53
780.92	43979.31
781.10	43767.55
781.29	43718.81
781.48	43598.80
781.66	43825.22
781.85	43892.89
782.04	43642.30
782.22	43852.99
782.41	43559.48
782.60	43883.46
782.78	43885.59
782.97	44047.47
783.16	43513.44
783.34	43644.92
783.53	43851.02
783.71	43675.88
783.90	43788.03
784.09	43793.44
784.27	43871.59
784.46	43816.29
784.65	43960.22
784.83	43677.77
785.02	43635.17
785.20	44113.66
785.39	43353.78
785.58	44054.18
785.76	43906.16
785.95	43750.10
786.14	43996.18
786.32	44001.92
786.51	43916.48
786.69	44253.49
786.88	44135.04
787.07	44029.77
787.25	44257.83
787.44	44232.68
787.62	44114.56
787.81	44419.70
788.00	44387.43
788.18	44113.49
788.37	44201.31
788.55	44932.68
788.74	44350.32
788.93	44500.89
789.11	44958.24
789.30	44771.96
789.48	44433.14
789.67	44820.94
789.86	44585.67
790.04	44728.13
790.23	44726.00
790.41	44613.52
790.60	45024.76
790.78	45083.57
790.97	44658.09
791.16	45180.73
791.34	45632.59
791.53	45043.52
791.71	45748.75
791.90	45355.95
792.08	45534.13
792.27	45680.76
792.46	45620.22
792.64	45805.03
792.83	45630.30
793.01	45845.09
793.20	45843.21
793.38	45920.78
793.57	45931.60
793.75	45995.08
793.94	46301.13
794.12	46646.26
794.31	46152.12
794.50	46541.15
794.68	46807.14
794.87	46580.72
795.05	47096.07
795.24	46778.88
795.42	46719.57
795.61	47416.13
795.79	47510.58
795.98	46912.82
796.16	47522.79
796.35	47663.61
796.53	47474.05
796.72	47873.73
796.90	47954.25
797.09	47916.00
797.27	47850.22
797.46	47801.07
797.64	48061.40
797.83	47782.06
798.01	47953.35
798.20	48110.39
798.38	47825.07
798.57	48210.00
798.75	48113.18
798.94	47601.35
799.12	48867.81
799.31	48430.12
799.49	48402.10
799.68	48288.73
799.86	48483.61
800.05	48494.84
800.23	48484.27
800.42	48355.82
800.60	48886.57
800.79	48390.55
800.97	48733.14
801.16	49108.08
801.34	48495.49
801.53	48551.44
801.71	48956.04
801.90	48648.92
802.08	49222.27
802.27	48920.57
802.45	48776.14
802.64	48969.47
802.82	49339.99
803.00	48668.50
803.19	49077.69
803.37	49582.88
803.56	49104.31
803.74	49210.48
803.93	49445.42
804.11	49362.44
804.30	49062.37
804.48	49507.11
804.67	49590.83
804.85	49403.40
805.03	49861.98
805.22	49310.01
805.40	49168.37
805.59	49574.11
805.77	49705.35
805.96	49410.69
806.14	49419.86
806.32	49563.55
806.51	50200.71
806.69	49709.44
806.88	49717.80
807.06	49847.89
807.25	49882.21
807.43	49782.60
807.61	50056.12
807.80	49762.94
807.98	50134.93
808.17	49727.71
808.35	49691.42
808.53	50214.80
808.72	49843.30
808.90	49947.75
809.09	49988.79
809.27	50171.14
809.45	49823.07
809.64	50245.68
809.82	49999.44
810.01	50055.31
810.19	50065.22
810.37	49847.48
810.56	49858.21
810.74	50103.23
810.93	49720.18
811.11	49980.35
811.29	49763.26
811.48	50056.86
811.66	49951.60
811.84	49850.84
812.03	49938.24
812.21	49899.58
812.40	50124.04
812.58	50333.75
812.76	49912.36
812.95	50337.52
813.13	49814.22
813.31	50022.87
813.50	50252.89
813.68	49966.34
813.86	50280.91
814.05	50324.57
814.23	49637.11
814.42	49999.19
814.60	49776.45
814.78	50112.32
814.97	49916.37
815.15	49902.85
815.33	50101.84
815.52	49753.68
815.70	49997.72
815.88	50065.38
816.07	49780.06
816.25	50064.73
816.43	50290.82
816.62	49820.53
816.80	50232.74
816.98	50002.06
817.17	50113.14
817.35	50072.59
817.53	50040.15
817.72	50443.35
817.90	49796.61
818.08	49965.77
818.26	50339.65
818.45	49741.31
818.63	50080.45
818.81	50242.00
819.00	49713.46
819.18	50232.33
819.36	50233.89
819.55	50258.14
819.73	49894.25
819.91	50251.99
820.09	49969.62
820.28	50437.21
820.46	50028.60
820.64	50652.66
820.83	50112.24
821.01	50260.02
821.19	50297.95
821.38	50393.38
821.56	50128.62
821.74	50453.51
821.92	50191.37
822.11	50769.47
822.29	50068.08
822.47	50045.23
822.65	50202.43
822.84	50330.22
823.02	49720.91
823.20	50463.26
823.39	49877.79
823.57	50038.35
823.75	50232.17
823.93	49938.41
824.12	50331.86
824.30	49969.62
824.48	50102.08
824.66	50379.87
824.85	49282.57
825.03	50102.08
825.21	50286.64
825.39	49992.72
825.58	50123.46
825.76	49860.58
825.94	49997.14
826.12	49828.14
826.31	49659.88
826.49	49863.78
826.67	49962.25
826.85	49768.43
827.03	49972.16
827.22	50158.20
827.40	49822.08
827.58	49682.98
827.76	49997.88
827.95	49614.42
828.13	49848.62
828.31	49880.74
828.49	50201.28
828.67	49887.54
828.86	49734.76
829.04	49937.18
829.22	49715.51
829.40	49650.05
829.58	49730.66
829.77	49955.12
829.95	50037.28
830.13	49944.31
830.31	49820.53
830.49	49934.56
830.68	50164.99
830.86	49823.07
831.04	49702.48
831.22	49953.89
831.40	49903.84
831.59	50183.75
831.77	49665.13
831.95	50180.89
832.13	49629.00
832.31	49885.73
832.50	49881.64
832.68	49622.53
832.86	49720.75
833.04	50172.94
833.22	49520.54
833.40	50352.18
833.59	49682.17
833.77	50214.64
833.95	49236.69
834.13	50602.36
834.31	50020.33
834.49	50107.24
834.67	50175.89
834.86	50203.50
835.04	50014.92
835.22	50227.25
835.40	49994.69
835.58	49859.27
835.76	49983.95
835.95	50031.22
836.13	49939.47
836.31	49712.15
836.49	50081.60
836.67	50133.05
836.85	49873.45
837.03	49851.16
837.21	49992.80
837.40	49753.03
837.58	49372.35
837.76	49804.39
837.94	49854.19
838.12	50285.09
838.30	49763.18
838.48	49779.65
838.66	49726.32
838.85	49855.42
839.03	49736.56
839.21	49652.51
839.39	49546.84
839.57	49816.76
839.75	49507.76
839.93	49532.99
840.11	49691.83
840.29	49579.85
840.47	49767.36
840.66	49750.16
840.84	49704.61
841.02	49469.18
841.20	49603.28
841.38	49515.13
841.56	49492.44
841.74	50050.39
841.92	49497.03
842.10	49540.69
842.28	49882.05
842.46	49488.26
842.65	49463.93
842.83	49889.67
843.01	50036.96
843.19	49261.27
843.37	49763.10
843.55	49446.73
843.73	49772.60
843.91	49754.09
844.09	49602.21
844.27	50086.76
844.45	49536.51
844.63	49509.40
844.81	49489.98
844.99	49497.77
845.17	49361.70
845.35	49726.07
845.54	49462.05
845.72	49592.30
845.90	49611.72
846.08	49692.98
846.26	49220.96
846.44	49814.05
846.62	49116.76
846.80	49338.43
846.98	49394.88
847.16	49404.05
847.34	49531.76
847.52	49484.74
847.70	49234.48
847.88	49485.48
848.06	49142.89
848.24	49488.51
848.42	49267.08
848.60	49099.89
848.78	49453.45
848.96	49230.63
849.14	49179.84
849.32	49498.09
849.50	48974.47
849.68	49398.07
849.86	49361.45
850.04	49035.83
850.22	49142.16
850.40	48787.37
850.58	49207.28
850.76	49916.70
850.94	48434.71
851.12	49133.97
851.30	48766.07
851.48	49203.60
851.66	48738.71
851.84	48738.46
852.02	48874.45
852.20	49274.05
852.38	48819.64
852.56	49026.65
852.74	49138.63
852.92	48900.33
853.10	48893.53
853.28	49375.30
853.46	48449.62
853.64	49186.80
853.82	48858.31
854.00	48926.38
854.18	48561.43
854.36	48469.36
854.54	48776.47
854.72	48447.49
854.90	48408.98
855.07	48604.44
855.25	48499.50
855.43	48578.47
855.61	48475.83
855.79	48306.91
855.97	48561.93
856.15	48401.45
856.33	48189.44
856.51	48637.29
856.69	48111.29
856.87	48627.05
857.05	48196.65
857.23	48623.45
857.41	48101.05
857.59	48221.64
857.77	48114.40
857.94	48089.26
858.12	48438.72
858.30	48153.15
858.48	48069.76
858.66	47852.10
858.84	48219.59
859.02	47710.46
859.20	47568.99
859.38	48161.43
859.56	47984.89
859.74	47838.99
859.92	47953.43
860.09	47728.65
860.27	48117.93
860.45	47631.17
860.63	47735.53
860.81	48140.70
860.99	47904.36
861.17	47269.41
861.35	46238.63
861.53	46159.33
861.70	46176.78
861.88	47341.50
862.06	47243.36
862.24	46353.32
862.42	46366.67
862.60	47170.37
862.78	47135.48
862.96	47270.40
863.14	46871.94
863.31	46988.43
863.49	46836.23
863.67	46832.46
863.85	46732.27
864.03	47041.19
864.21	46935.92
864.39	46968.77
864.56	46679.93
864.74	46951.73
864.92	46807.31
865.10	46822.30
865.28	46837.95
865.46	47424.73
865.64	46311.29
865.81	46871.37
865.99	46130.00
866.17	46704.75
866.35	46334.72
866.53	46514.20
866.71	46509.21
866.88	46710.24
867.06	46362.16
867.24	46576.63
867.42	46233.47
867.60	46641.42
867.78	46351.35
867.95	46814.44
868.13	46309.73
868.31	46742.10
868.49	46696.80
868.67	46452.11
868.84	46306.13
869.02	46582.61
869.20	45631.12
869.38	46305.97
869.56	46023.10
869.73	45854.35
869.91	46149.34
870.09	46186.69
870.27	45835.92
870.45	46063.90
870.62	45751.05
870.80	46245.76
870.98	45970.34
871.16	46056.11
871.34	45987.71
871.51	46034.16
871.69	45676.42
871.87	45909.40
872.05	45890.80
872.23	45857.62
872.40	45488.34
872.58	45705.26
872.76	45350.71
872.94	45318.44
873.11	45363.65
873.29	44997.15
873.47	45394.29
873.65	45071.12
873.83	45083.66
874.00	45130.43
874.18	45216.94
874.36	44983.14
874.54	45101.68
874.71	44744.43
874.89	44492.86
875.07	44992.56
875.25	44760.24
875.42	44891.39
875.60	44877.14
875.78	45262.57
875.96	44897.21
876.13	45224.56
876.31	44620.82
876.49	44845.52
876.66	44531.20
876.84	45399.86
877.02	44799.23
877.20	45119.37
877.37	45033.03
877.55	45011.98
877.73	44840.19
877.91	44641.54
878.08	45141.33
878.26	44927.93
878.44	44972.98
878.61	45141.33
878.79	44903.35
878.97	45056.13
879.15	45317.86
879.32	45292.47
879.50	45174.50
879.68	45487.68
879.85	44946.11
880.03	45383.72
880.21	45050.56
880.38	45639.31
880.56	45160.17
880.74	45789.80
880.92	45147.14
881.09	45573.20
881.27	45484.24
881.45	45528.23
881.62	45487.35
881.80	45376.02
881.98	45390.77
882.15	45841.65
882.33	45457.21
882.51	45712.14
882.68	45375.94
882.86	45826.09
883.04	45241.84
883.21	45263.22
883.39	45670.77
883.57	45243.81
883.74	45510.29
883.92	45614.98
884.10	45811.26
884.27	45731.63
884.45	45604.74
884.63	46036.70
884.80	45835.51
884.98	45857.30
885.16	45700.67
885.33	45758.01
885.51	45932.17
885.69	45858.03
885.86	45876.14
886.04	46234.86
886.21	45643.57
886.39	46107.07
886.57	45380.61
886.74	46185.55
886.92	46045.63
887.10	46199.88
887.27	46107.15
887.45	46004.75
887.62	45992.95
887.80	46028.43
887.98	46496.84
888.15	46312.44
888.33	46044.65
888.51	46551.48
888.68	46291.96
888.86	46437.69
889.03	46296.87
889.21	46648.47
889.39	46796.58
889.56	46793.87
889.74	46740.87
889.91	46851.38
890.09	46750.05
890.27	46809.44
890.44	46750.70
890.62	46849.66
890.79	46901.43
890.97	47142.52
891.14	46941.98
891.32	47240.33
891.50	46984.01
891.67	47416.13
891.85	47360.75
892.02	47201.42
892.20	47744.87
892.38	47492.48
892.55	47250.24
892.73	47582.34
892.90	47221.57
893.08	47473.55
893.25	47345.35
893.43	47825.89
893.60	47228.62
893.78	47661.23
893.96	47312.26
894.13	47619.62
894.31	47823.27
894.48	47442.26
894.66	47594.22
894.83	47791.64
895.01	47740.36
895.18	47876.68
895.36	47658.94
895.53	47938.69
895.71	47653.94
895.89	47785.01
896.06	47519.51
896.24	47808.77
896.41	47753.06
896.59	47955.73
896.76	47367.14
896.94	47824.33
897.11	47920.09
897.29	47946.96
897.46	47593.32
897.64	47770.26
897.81	47656.56
897.99	47305.37
898.16	47882.98
898.34	47800.82
898.51	47714.23
898.69	47450.45
898.86	47600.45
899.04	47690.64
899.21	47188.31
899.39	47515.91
899.56	47148.75
899.74	47841.12
899.91	47476.42
900.09	47299.72
900.26	47701.94
900.44	47477.40
900.61	47607.98
900.79	48100.89
900.96	47780.01
901.14	47748.80
901.31	47569.73
901.49	47528.52
901.66	47706.61
901.84	47758.88
902.01	47420.14
902.19	47620.93
902.36	47195.28
902.54	47471.26
902.71	47320.20
902.88	47546.46
903.06	46588.18
903.23	47495.67
903.41	46761.27
903.58	46751.11
903.76	46401.07
903.93	46865.96
904.11	47026.52
904.28	46509.86
904.45	46565.16
904.63	46356.51
904.80	45984.60
904.98	46374.94
905.15	45835.67
905.33	46330.62
905.50	46002.21
905.68	46117.55
905.85	45865.24
906.02	45793.89
906.20	46093.88
906.37	45456.88
906.55	45227.59
906.72	45780.05
906.90	45194.90
907.07	44911.63
907.24	45255.28
907.42	44854.69
907.59	44781.70
907.77	44620.98
907.94	44468.12
908.11	44646.05
908.29	44338.03
908.46	44355.48
908.64	43971.36
908.81	44087.03
908.98	43744.45
909.16	44145.20
909.33	43652.86
909.51	43660.32
909.68	43485.34
909.85	43476.33
910.03	43497.96
910.20	43046.58
910.37	43139.97
910.55	42950.57
910.72	42808.61
910.90	42516.24
911.07	42489.45
911.24	42294.40
911.42	42686.22
911.59	42227.56
911.76	42363.05
911.94	42129.01
912.11	42047.58
912.29	42038.33
912.46	41787.74
912.63	41882.93
912.81	41407.06
912.98	41857.70
913.15	41341.44
913.33	41692.14
913.50	41490.95
913.67	41289.43
913.85	41165.32
914.02	41293.28
914.19	41098.64
914.37	40848.13
914.54	40979.12
914.71	40707.07
914.89	40811.02
915.06	40692.24
915.23	40442.22
915.41	40356.53
915.58	40270.27
915.75	40146.90
915.93	40202.36
916.10	40032.55
916.27	39932.77
916.45	40018.13
916.62	39645.40
916.79	39895.91
916.97	39585.43
917.14	39599.20
917.31	39338.12
917.49	39433.97
917.66	39319.61
917.83	39158.56
918.00	38869.05
918.18	38878.80
918.35	38578.41
918.52	38920.25
918.70	38393.76
918.87	38384.34
919.04	38470.44
919.21	38286.53
919.39	37887.83
919.56	38255.48
919.73	37696.06
919.91	37952.63
920.08	37774.70
920.25	37427.78
920.42	37837.94
920.60	37333.98
920.77	37141.96
920.94	37308.09
921.11	36872.20
921.29	37115.01
921.46	36474.24
921.63	36926.68
921.81	36482.35
921.98	36448.03
922.15	36363.90
922.32	36389.21
922.50	36130.51
922.67	36035.81
922.84	35806.44
923.01	35619.99
923.19	35632.61
923.36	35739.18
923.53	35026.66
923.70	35474.01
923.87	35195.49
924.05	35409.63
924.22	34972.59
924.39	35110.87
924.56	34601.58
924.74	34811.54
924.91	34722.16
925.08	34466.74
925.25	34439.87
925.43	34290.45
925.60	33932.79
925.77	34221.07
925.94	33880.28
926.11	33958.35
926.29	33638.62
926.46	33776.66
926.63	33549.50
926.80	33516.07
926.97	33256.72
927.15	33430.47
927.32	33050.86
927.49	33011.13
927.66	33018.58
927.83	33120.32
928.01	32676.49
928.18	32690.91
928.35	32417.05
928.52	32700.49
928.69	32166.63
928.87	32107.07
929.04	32009.34
929.21	32108.05
929.38	31849.85
929.55	31913.33
929.72	31507.02
929.90	31604.91
930.07	31547.24
930.24	31322.54
930.41	31215.88
930.58	31216.29
930.75	31320.41
930.93	31049.09
931.10	31082.19
931.27	30686.11
931.44	30764.91
931.61	30584.53
931.78	30764.01
931.95	30591.41
932.13	30238.09
932.30	30613.77
932.47	29994.39
932.64	30261.93
932.81	30106.21
932.98	30020.03
933.15	30067.46
933.33	29684.57
933.50	30000.37
933.67	29609.20
933.84	29692.84
934.01	29610.35
934.18	29474.12
934.35	29392.45
934.52	29270.88
934.70	29273.17
934.87	29095.33
935.04	28945.91
935.21	29016.85
935.38	28842.69
935.55	28757.50
935.72	28929.93
935.89	28517.64
936.06	28701.87
936.24	28246.73
936.41	28629.70
936.58	28127.62
936.75	28254.84
936.92	28116.48
937.09	28091.82
937.26	27757.68
937.43	27840.41
937.60	27893.58
937.77	27634.39
937.94	27581.96
938.12	27567.87
938.29	27223.73
938.46	27385.85
938.63	26945.62
938.80	27151.56
938.97	26955.77
939.14	26892.45
939.31	26788.41
939.48	26864.68
939.65	26601.64
939.82	26598.44
939.99	26508.42
940.16	26492.36
940.33	26336.22
940.50	26234.73
940.67	26201.96
940.85	26148.06
941.02	26040.74
941.19	26134.05
941.36	25964.97
941.53	25914.42
941.70	25916.72
941.87	25529.49
942.04	25642.29
942.21	25635.49
942.38	25648.11
942.55	25354.43
942.72	25396.61
942.89	25335.09
943.06	25072.13
943.23	25067.79
943.40	24925.42
943.57	24972.36
943.74	24880.61
943.91	24806.80
944.08	24640.91
944.25	24747.90
944.42	24347.32
944.59	24249.83
944.76	24312.67
944.93	24196.59
945.10	24027.83
945.27	24024.97
945.44	23778.97
945.61	23929.61
945.78	23812.96
945.95	23808.29
946.12	23610.29
946.29	23828.69
946.46	23731.70
946.63	23556.97
946.80	23589.32
946.97	23494.13
947.14	23351.35
947.31	23478.57
947.48	23265.17
947.65	23193.98
947.82	23218.23
947.99	23256.57
948.16	22973.38
948.33	23271.15
948.50	22778.25
948.67	22836.65
948.84	22721.97
949.01	22606.46
949.18	22573.53
949.35	22593.93
949.52	22351.53
949.68	22405.60
949.85	22319.75
950.02	22284.19
950.19	22115.69
950.36	22108.15
950.53	22089.88
950.70	21864.77
950.87	21777.28
951.04	21927.36
951.21	21704.78
951.38	21518.34
951.55	21631.14
951.72	21549.96
951.89	21494.25
952.06	21551.84
952.23	21523.58
952.39	21277.33
952.56	21103.09
952.73	21263.57
952.90	21033.13
953.07	21196.89
953.24	20858.81
953.41	20890.26
953.58	20668.02
953.75	20816.05
953.92	20611.00
954.09	20554.32
954.25	20433.81
954.42	20421.28
954.59	20279.72
954.76	20269.48
954.93	20044.29
955.10	20174.70
955.27	19923.13
955.44	19973.27
955.61	19804.84
955.77	19957.70
955.94	19747.01
956.11	19774.04
956.28	19753.72
956.45	19627.57
956.62	19599.80
956.79	19548.84
956.96	19498.22
957.12	19505.84
957.29	19364.12
957.46	19341.51
957.63	19158.26
957.80	19077.24
957.97	19018.58
958.14	19200.28
958.30	18829.19
958.47	18868.67
958.64	18752.02
958.81	18865.23
958.98	18610.96
959.15	18648.23
959.32	18704.75
959.48	18612.43
959.65	18392.56
959.82	18475.30
959.99	18277.71
960.16	18462.68
960.33	18371.34
960.49	18305.81
960.66	18173.43
960.83	18228.48
961.00	18161.47
961.17	18121.49
961.33	18005.66
961.50	18000.99
961.67	17827.49
961.84	17921.12
962.01	17751.47
962.18	17859.43
962.34	17597.95
962.51	17606.14
962.68	17420.35
962.85	17619.99
963.02	17269.37
963.18	17344.00
963.35	17146.82
963.52	17077.68
963.69	17073.51
963.86	17072.36
964.02	16809.65
964.19	16924.99
964.36	16788.84
964.53	16746.65
964.69	16546.28
964.86	16732.07
965.03	16459.28
965.20	16629.42
965.37	16306.99
965.53	16364.74
965.70	16325.92
965.87	16397.51
966.04	16201.15
966.20	16141.11
966.37	16130.95
966.54	15939.50
966.71	16190.18
966.87	15973.34
967.04	15970.06
967.21	15902.89
967.38	15825.06
967.54	15849.07
967.71	15767.72
967.88	15726.02
968.05	15707.67
968.21	15533.19
968.38	15493.54
968.55	15483.71
968.72	15390.89
968.88	15226.32
969.05	15391.47
969.22	15211.82
969.39	15186.51
969.55	15225.01
969.72	15012.68
969.89	15016.20
970.05	15083.21
970.22	15028.16
970.39	14852.93
970.56	14960.49
970.72	14919.12
970.89	14886.36
971.06	14788.30
971.22	14787.40
971.39	14729.65
971.56	14771.67
971.73	14603.49
971.89	14753.65
972.06	14581.70
972.23	14651.82
972.39	14403.20
972.56	14516.33
972.73	14282.86
972.89	14352.98
973.06	14355.93
973.23	14273.52
973.39	14173.99
973.56	14206.43
973.73	14103.71
973.89	14152.69
974.06	13961.49
974.23	13906.53
974.39	13893.99
974.56	13868.03
974.73	13722.37
974.89	13667.16
975.06	13615.96
975.23	13779.80
975.39	13553.70
975.56	13604.16
975.73	13546.00
975.89	13484.48
976.06	13470.39
976.23	13347.02
976.39	13365.54
976.56	13258.14
976.73	13251.50
976.89	13149.60
977.06	13064.48
977.23	13009.93
977.39	13000.42
977.56	12991.00
977.72	12746.07
977.89	12866.08
978.06	12822.41
978.22	12767.12
978.39	12727.39
978.56	12664.07
978.72	12558.72
978.89	12571.17
979.05	12512.84
979.22	12447.88
979.39	12371.37
979.55	12339.34
979.72	12245.62
979.88	12363.92
980.05	12131.35
980.22	12252.18
980.38	12175.09
980.55	12089.08
980.71	12045.33
980.88	12063.44
981.05	12043.45
981.21	11896.32
981.38	11873.88
981.54	11907.38
981.71	11762.88
981.88	11787.04
982.04	11717.41
982.21	11677.93
982.37	11639.34
982.54	11656.63
982.70	11558.90
982.87	11574.87
983.04	11336.49
983.20	11585.44
983.37	11335.18
983.53	11448.55
983.70	11322.40
983.86	11249.57
984.03	11237.70
984.20	11244.66
984.36	11169.38
984.53	11182.32
984.69	11085.49
984.86	10994.56
985.02	11030.52
985.19	10952.62
985.35	10940.66
985.52	10895.36
985.68	10844.81
985.85	10815.00
986.02	10792.88
986.18	10790.67
986.35	10742.91
986.51	10741.76
986.68	10712.19
986.84	10637.48
987.01	10585.70
987.17	10653.86
987.34	10586.61
987.50	10511.24
987.67	10438.25
987.83	10472.57
988.00	10419.98
988.16	10325.20
988.33	10287.44
988.49	10294.07
988.66	10154.40
988.82	10187.91
988.99	10150.06
989.15	10116.97
989.32	9990.97
989.48	9975.57
989.65	9894.23
989.81	9893.08
989.98	9824.84
990.14	9747.35
990.31	9802.07
990.47	9738.91
990.64	9754.48
990.80	9700.00
990.97	9576.88
991.13	9641.43
991.30	9605.30
991.46	9511.09
991.63	9509.13
991.79	9520.11
991.95	9357.91
992.12	9522.32
992.28	9371.26
992.45	9368.80
992.61	9366.43
992.78	9367.49
992.94	9266.49
993.11	9352.83
993.27	9280.66
993.44	9219.22
993.60	9209.63
993.76	9192.18
993.93	9184.65
994.09	9152.21
994.26	9077.83
994.42	9059.07
994.59	8961.26
994.75	8979.44
994.91	8900.80
995.08	8823.55
995.24	8802.09
995.41	8795.12
995.57	8759.57
995.74	8727.21
995.90	8681.18
996.06	8670.36
996.23	8683.14
996.39	8598.03
996.56	8585.82
996.72	8585.25
996.88	8607.20
997.05	8572.22
997.21	8438.12
997.38	8493.34
997.54	8430.42
997.70	8416.91
997.87	8411.42
998.03	8383.48
998.20	8262.90
998.36	8293.54
998.52	8216.45
998.69	8319.59
998.85	8198.35
999.02	8169.92
999.18	8161.81
999.34	8167.30
999.51	8116.10
999.67	8118.72
999.83	8067.85
1000.00	8042.86
1000.16	7982.82
1000.33	7937.84
1000.49	7912.37
1000.65	7918.59
1000.82	7882.55
1000.98	7800.96
1001.14	7785.48
1001.31	7796.94
1001.47	7770.32
1001.63	7722.73
1001.80	7683.65
1001.96	7589.69
1002.12	7604.27
1002.29	7620.41
1002.45	7562.25
1002.61	7533.58
1002.78	7528.01
1002.94	7528.91
1003.10	7446.17
1003.27	7465.58
1003.43	7408.90
1003.59	7443.14
1003.76	7420.61
1003.92	7383.58
1004.08	7335.25
1004.25	7390.55
1004.41	7293.64
1004.57	7266.36
1004.74	7205.98
1004.90	7294.46
1005.06	7168.38
1005.23	7184.60
1005.39	7170.43
1005.55	7152.74
1005.71	7121.03
1005.88	7042.88
1006.04	7104.73
1006.20	7059.18
1006.37	6933.28
1006.53	6933.19
1006.69	6937.29
1006.85	6959.82
1007.02	6847.83
1007.18	6850.62
1007.34	6804.74
1007.51	6819.33
1007.67	6752.97
1007.83	6738.72
1007.99	6709.96
1008.16	6716.27
1008.32	6635.17
1008.48	6697.19
1008.64	6609.04
1008.81	6674.33
1008.97	6578.89
1009.13	6597.49
1009.29	6575.13
1009.46	6571.77
1009.62	6553.01
1009.78	6480.67
1009.95	6487.80
1010.11	6429.80
1010.27	6406.21
1010.43	6382.62
1010.59	6427.02
1010.76	6381.47
1010.92	6354.19
1011.08	6343.95
1011.24	6308.89
1011.41	6368.69
1011.57	6238.19
1011.73	6261.21
1011.89	6167.17
1012.06	6253.19
1012.22	6161.85
1012.38	6192.07
1012.54	6124.90
1012.70	6126.62
1012.87	6088.12
1013.03	6139.89
1013.19	6081.07
1013.35	6077.47
1013.51	5969.99
1013.68	6055.60
1013.84	5980.31
1014.00	5984.49
1014.16	5917.16
1014.32	5918.30
1014.49	5916.09
1014.65	5970.24
1014.81	5857.85
1014.97	5890.53
1015.13	5841.22
1015.30	5840.64
1015.46	5856.21
1015.62	5791.25
1015.78	5771.91
1015.94	5781.17
1016.10	5731.85
1016.27	5694.50
1016.43	5679.35
1016.59	5730.79
1016.75	5666.48
1016.91	5677.95
1017.07	5622.74
1017.24	5614.47
1017.40	5548.68
1017.56	5579.90
1017.72	5522.31
1017.88	5550.08
1018.04	5478.97
1018.21	5503.79
1018.37	5524.60
1018.53	5484.62
1018.69	5442.93
1018.85	5445.47
1019.01	5394.43
1019.17	5391.89
1019.34	5384.77
1019.50	5384.19
1019.66	5332.34
1019.82	5339.87
1019.98	5291.05
1020.14	5345.28
1020.30	5301.78
1020.46	5315.95
1020.63	5260.74
1020.79	5249.93
1020.95	5245.26
1021.11	5259.43
1021.27	5210.77
1021.43	5202.09
1021.59	5266.72
1021.75	5193.16
1021.91	5129.67
1022.07	5122.63
1022.24	5125.25
1022.40	5116.32
1022.56	5053.32
1022.72	5124.43
1022.88	5025.47
1023.04	5077.73
1023.20	5013.67
1023.36	5034.73
1023.52	5001.55
1023.68	4991.15
1023.84	4978.94
1024.01	5017.85
1024.17	4911.36
1024.33	4956.33
1024.49	4934.05
1024.65	4899.72
1024.81	4928.56
1024.97	4911.93
1025.13	4909.31
1025.29	4882.11
1025.45	4820.75
1025.61	4899.81
1025.77	4831.98
1025.93	4841.64
1026.09	4799.62
1026.25	4835.66
1026.41	4787.58
1026.57	4776.19
1026.73	4775.86
1026.90	4749.24
1027.06	4761.61
1027.22	4766.77
1027.38	4756.61
1027.54	4763.98
1027.70	4706.56
1027.86	4710.00
1028.02	4693.04
1028.18	4698.04
1028.34	4665.52
1028.50	4707.87
1028.66	4622.92
1028.82	4644.71
1028.98	4598.18
1029.14	4580.24
1029.30	4594.17
1029.46	4581.14
1029.62	4584.42
1029.78	4531.50
1029.94	4567.63
1030.10	4539.28
1030.26	4457.20
1030.42	4493.73
1030.58	4499.31
1030.74	4489.88
1030.90	4432.13
1031.06	4469.57
1031.22	4431.89
1031.38	4420.91
1031.54	4425.91
1031.70	4399.69
1031.86	4393.38
1032.02	4403.71
1032.18	4351.77
1032.34	4375.94
1032.50	4350.30
1032.66	4377.82
1032.82	4310.97
1032.98	4362.17
1033.14	4361.60
1033.30	4340.46
1033.45	4293.28
1033.61	4336.53
1033.77	4283.61
1033.93	4306.63
1034.09	4271.57
1034.25	4277.88
1034.41	4241.43
1034.57	4254.61
1034.73	4232.74
1034.89	4227.25
1035.05	4256.09
1035.21	4225.78
1035.37	4182.94
1035.53	4204.48
1035.69	4163.03
1035.85	4219.72
1036.01	4177.86
1036.16	4180.31
1036.32	4171.88
1036.48	4166.31
1036.64	4114.61
1036.80	4173.60
1036.96	4137.47
1037.12	4127.72
1037.28	4131.82
1037.44	4137.47
1037.60	4099.13
1037.76	4076.28
1037.91	4087.75
1038.07	4108.80
1038.23	4084.39
1038.39	4061.12
1038.55	4042.85
1038.71	4095.20
1038.87	4015.74
1039.03	4087.09
1039.19	4009.27
1039.35	4032.45
1039.50	4055.55
1039.66	4036.22
1039.82	3986.00
1039.98	4025.41
1040.14	3973.71
1040.30	3985.43
1040.46	3931.44
1040.62	3941.11
1040.77	3982.89
1040.93	4004.02
1041.09	3930.71
1041.25	3931.28
1041.41	3936.61
1041.57	3915.55
1041.73	3915.55
1041.88	3915.55

