SpectraSuite Data File
++++++++++++++++++++++++++++++++++++
Date: Tue Sep 20 12:47:07 EDT 2022
User: Laboratoire
Dark Spectrum Present: No
Reference Spectrum Present: No
Number of Sampled Component Spectra: 1
Spectrometers: FLMT00174
Integration Time (usec): 40000 (FLMT00174)
Spectra Averaged: 25 (FLMT00174)
Boxcar Smoothing: 0 (FLMT00174)
Correct for Electrical Dark: No (FLMT00174)
Strobe/Lamp Enabled: No (FLMT00174)
Correct for Detector Non-linearity: No (FLMT00174)
Correct for Stray Light: No (FLMT00174)
Number of Pixels in Processed Spectrum: 3648
>>>>>Begin Processed Spectral Data<<<<<
345.74	3181.07
345.96	3181.07
346.18	3181.07
346.39	3183.53
346.61	3327.79
346.83	3316.89
347.05	3318.04
347.27	3316.81
347.49	3329.92
347.71	3358.42
347.93	3349.08
348.15	3351.46
348.36	3341.47
348.58	3352.28
348.80	3343.92
349.02	3326.97
349.24	3361.70
349.46	3496.29
349.68	3503.17
349.90	3523.33
350.11	3471.06
350.33	3513.66
350.55	3484.17
350.77	3507.35
350.99	3448.53
351.21	3497.28
351.43	3462.46
351.65	3531.52
351.86	3484.33
352.08	3509.89
352.30	3465.90
352.52	3510.96
352.74	3464.34
352.96	3465.08
353.18	3511.61
353.39	3485.72
353.61	3477.94
353.83	3508.99
354.05	3550.44
354.27	3508.09
354.49	3497.52
354.70	3490.48
354.92	3491.70
355.14	3469.59
355.36	3484.50
355.58	3483.76
355.80	3482.94
356.02	3510.71
356.23	3510.55
356.45	3498.34
356.67	3511.86
356.89	3540.28
357.11	3496.37
357.33	3539.63
357.54	3455.82
357.76	3492.52
357.98	3470.08
358.20	3513.74
358.42	3476.06
358.63	3459.43
358.85	3516.44
359.07	3522.01
359.29	3460.25
359.51	3471.88
359.73	3465.82
359.94	3481.14
360.16	3456.07
360.38	3456.40
360.60	3460.33
360.82	3499.90
361.03	3513.25
361.25	3471.39
361.47	3528.08
361.69	3526.85
361.91	3493.18
362.12	3498.34
362.34	3518.66
362.56	3507.68
362.78	3482.28
363.00	3508.66
363.21	3494.24
363.43	3519.23
363.65	3456.56
363.87	3473.44
364.09	3515.63
364.30	3470.08
364.52	3463.69
364.74	3521.61
364.96	3493.92
365.17	3487.04
365.39	3498.75
365.61	3457.22
365.83	3489.57
366.05	3478.84
366.26	3458.12
366.48	3480.73
366.70	3533.81
366.92	3498.50
367.13	3471.39
367.35	3471.31
367.57	3517.75
367.79	3468.77
368.01	3505.30
368.22	3501.45
368.44	3486.79
368.66	3494.49
368.88	3499.90
369.09	3470.16
369.31	3510.30
369.53	3470.00
369.75	3489.66
369.96	3512.59
370.18	3476.88
370.40	3511.37
370.62	3490.97
370.83	3456.23
371.05	3539.30
371.27	3507.92
371.49	3459.67
371.70	3491.30
371.92	3481.87
372.14	3496.87
372.36	3470.16
372.57	3521.36
372.79	3501.29
373.01	3479.34
373.22	3478.76
373.44	3503.99
373.66	3485.23
373.88	3498.18
374.09	3466.23
374.31	3473.11
374.53	3444.68
374.75	3517.43
374.96	3502.19
375.18	3518.16
375.40	3479.09
375.61	3474.83
375.83	3470.49
376.05	3478.84
376.27	3527.91
376.48	3439.11
376.70	3474.17
376.92	3479.91
377.13	3478.76
377.35	3462.54
377.57	3479.74
377.79	3464.84
378.00	3475.48
378.22	3499.65
378.44	3460.08
378.65	3522.42
378.87	3488.51
379.09	3491.38
379.30	3476.22
379.52	3487.04
379.74	3493.75
379.96	3475.40
380.17	3465.00
380.39	3462.21
380.61	3476.96
380.82	3480.65
381.04	3474.17
381.26	3489.98
381.47	3474.58
381.69	3518.08
381.91	3476.96
382.12	3490.56
382.34	3517.75
382.56	3486.95
382.77	3477.61
382.99	3472.78
383.21	3478.11
383.42	3524.72
383.64	3494.16
383.86	3492.85
384.07	3515.63
384.29	3474.67
384.51	3454.27
384.72	3470.08
384.94	3453.28
385.16	3462.13
385.37	3470.00
385.59	3460.17
385.81	3494.16
386.02	3472.95
386.24	3496.29
386.46	3441.73
386.67	3500.31
386.89	3514.40
387.11	3515.46
387.32	3484.66
387.54	3495.64
387.76	3503.26
387.97	3520.70
388.19	3501.29
388.40	3482.94
388.62	3462.21
388.84	3503.75
389.05	3471.06
389.27	3484.74
389.49	3498.75
389.70	3443.78
389.92	3486.63
390.14	3454.27
390.35	3498.91
390.57	3501.62
390.78	3458.12
391.00	3450.34
391.22	3447.63
391.43	3469.59
391.65	3470.65
391.86	3502.03
392.08	3493.92
392.30	3463.61
392.51	3471.31
392.73	3541.18
392.95	3470.16
393.16	3431.08
393.38	3494.49
393.59	3448.12
393.81	3496.21
394.03	3493.92
394.24	3485.40
394.46	3475.08
394.67	3477.70
394.89	3446.90
395.11	3491.62
395.32	3535.04
395.54	3495.06
395.75	3510.63
395.97	3474.58
396.19	3439.77
396.40	3493.67
396.62	3481.87
396.83	3468.19
397.05	3469.42
397.26	3463.77
397.48	3461.31
397.70	3473.35
397.91	3501.78
398.13	3453.53
398.34	3481.14
398.56	3484.58
398.78	3518.66
398.99	3538.15
399.21	3436.66
399.42	3537.42
399.64	3444.68
399.85	3498.42
400.07	3456.32
400.29	3507.11
400.50	3481.06
400.72	3516.94
400.93	3461.97
401.15	3438.38
401.36	3488.84
401.58	3488.51
401.79	3467.29
402.01	3499.00
402.23	3470.41
402.44	3546.59
402.66	3480.56
402.87	3494.41
403.09	3506.04
403.30	3484.17
403.52	3458.53
403.73	3430.92
403.95	3451.97
404.16	3490.31
404.38	3472.29
404.60	3469.59
404.81	3503.99
405.03	3495.80
405.24	3508.74
405.46	3516.28
405.67	3489.49
405.89	3499.16
406.10	3475.57
406.32	3468.93
406.53	3526.36
406.75	3561.34
406.96	3485.07
407.18	3486.46
407.39	3471.80
407.61	3523.08
407.82	3440.67
408.04	3512.35
408.25	3468.60
408.47	3468.52
408.68	3486.38
408.90	3442.06
409.12	3493.59
409.33	3489.66
409.55	3469.50
409.76	3466.39
409.98	3492.20
410.19	3495.96
410.41	3489.98
410.62	3473.93
410.84	3430.68
411.05	3470.32
411.27	3507.27
411.48	3494.57
411.70	3522.10
411.91	3492.61
412.12	3471.47
412.34	3448.62
412.55	3474.09
412.77	3463.12
412.98	3493.59
413.20	3440.92
413.41	3478.84
413.63	3476.96
413.84	3477.12
414.06	3511.53
414.27	3452.14
414.49	3484.17
414.70	3496.70
414.92	3476.22
415.13	3450.58
415.35	3496.70
415.56	3502.60
415.78	3463.52
415.99	3491.30
416.21	3479.91
416.42	3500.55
416.63	3492.93
416.85	3482.04
417.06	3490.80
417.28	3486.95
417.49	3489.41
417.71	3475.40
417.92	3451.65
418.14	3457.14
418.35	3468.52
418.57	3506.61
418.78	3479.83
418.99	3471.96
419.21	3489.25
419.42	3474.58
419.64	3459.43
419.85	3481.38
420.07	3500.88
420.28	3491.05
420.50	3508.42
420.71	3477.29
420.92	3459.18
421.14	3472.86
421.35	3437.47
421.57	3467.62
421.78	3471.80
422.00	3467.05
422.21	3482.69
422.42	3463.36
422.64	3476.88
422.85	3496.13
423.07	3457.30
423.28	3458.53
423.50	3461.48
423.71	3462.71
423.92	3504.81
424.14	3467.78
424.35	3474.91
424.57	3494.16
424.78	3521.93
424.99	3459.43
425.21	3470.90
425.42	3471.72
425.64	3466.72
425.85	3463.03
426.06	3532.99
426.28	3458.53
426.49	3472.45
426.71	3479.17
426.92	3457.14
427.13	3491.95
427.35	3506.12
427.56	3486.95
427.78	3465.65
427.99	3506.78
428.20	3492.77
428.42	3517.43
428.63	3471.80
428.84	3437.56
429.06	3466.72
429.27	3508.25
429.49	3451.65
429.70	3429.04
429.91	3499.24
430.13	3472.95
430.34	3436.74
430.56	3514.97
430.77	3444.19
430.98	3447.30
431.20	3506.70
431.41	3482.28
431.62	3437.06
431.84	3448.29
432.05	3453.78
432.26	3496.78
432.48	3455.58
432.69	3518.41
432.91	3496.21
433.12	3466.47
433.33	3487.69
433.55	3506.29
433.76	3447.06
433.97	3493.10
434.19	3444.03
434.40	3444.52
434.61	3482.04
434.83	3472.21
435.04	3468.60
435.25	3446.98
435.47	3465.74
435.68	3500.96
435.89	3491.13
436.11	3431.82
436.32	3494.08
436.53	3460.99
436.75	3447.14
436.96	3471.63
437.17	3469.50
437.39	3427.23
437.60	3479.17
437.81	3442.64
438.03	3482.45
438.24	3441.32
438.45	3497.52
438.67	3442.23
438.88	3511.86
439.09	3483.59
439.31	3505.88
439.52	3495.64
439.73	3484.33
439.94	3448.78
440.16	3470.32
440.37	3461.80
440.58	3497.03
440.80	3448.78
441.01	3473.19
441.22	3470.57
441.44	3447.88
441.65	3489.74
441.86	3470.24
442.08	3503.75
442.29	3484.99
442.50	3481.06
442.71	3479.74
442.93	3475.98
443.14	3461.23
443.35	3495.72
443.57	3489.33
443.78	3434.85
443.99	3456.73
444.20	3497.28
444.42	3465.08
444.63	3445.26
444.84	3473.76
445.06	3482.45
445.27	3479.66
445.48	3470.00
445.69	3508.17
445.91	3460.99
446.12	3456.89
446.33	3474.17
446.54	3455.99
446.76	3449.93
446.97	3435.84
447.18	3442.23
447.39	3492.77
447.61	3467.29
447.82	3445.83
448.03	3473.44
448.25	3456.56
448.46	3486.13
448.67	3488.26
448.88	3466.72
449.10	3474.58
449.31	3465.16
449.52	3481.96
449.73	3468.28
449.95	3473.85
450.16	3472.70
450.37	3491.54
450.58	3446.16
450.79	3423.38
451.01	3461.64
451.22	3496.70
451.43	3477.04
451.64	3496.78
451.86	3475.32
452.07	3440.18
452.28	3405.36
452.49	3507.92
452.71	3478.93
452.92	3495.55
453.13	3453.37
453.34	3540.61
453.55	3470.90
453.77	3464.43
453.98	3474.67
454.19	3471.23
454.40	3425.76
454.62	3487.77
454.83	3462.79
455.04	3464.18
455.25	3504.65
455.46	3499.73
455.68	3491.46
455.89	3465.25
456.10	3452.14
456.31	3475.40
456.52	3472.62
456.74	3518.57
456.95	3460.58
457.16	3495.80
457.37	3461.97
457.58	3474.75
457.80	3493.83
458.01	3452.96
458.22	3493.75
458.43	3477.21
458.64	3461.31
458.86	3474.99
459.07	3456.97
459.28	3499.57
459.49	3477.86
459.70	3479.99
459.91	3489.25
460.13	3445.75
460.34	3445.42
460.55	3463.12
460.76	3454.60
460.97	3504.65
461.19	3453.37
461.40	3445.42
461.61	3494.74
461.82	3494.90
462.03	3466.72
462.24	3454.60
462.46	3454.35
462.67	3470.41
462.88	3447.96
463.09	3494.41
463.30	3438.79
463.51	3453.61
463.72	3468.85
463.94	3454.60
464.15	3473.76
464.36	3466.56
464.57	3458.77
464.78	3514.81
464.99	3437.47
465.20	3472.13
465.42	3503.83
465.63	3498.18
465.84	3434.44
466.05	3481.71
466.26	3506.20
466.47	3483.27
466.68	3426.01
466.90	3457.95
467.11	3470.00
467.32	3475.40
467.53	3439.85
467.74	3467.37
467.95	3459.26
468.16	3458.04
468.37	3462.54
468.59	3458.36
468.80	3473.52
469.01	3513.50
469.22	3404.46
469.43	3469.50
469.64	3539.14
469.85	3529.47
470.06	3469.26
470.28	3489.82
470.49	3462.38
470.70	3456.32
470.91	3467.95
471.12	3462.87
471.33	3442.88
471.54	3475.40
471.75	3459.10
471.96	3477.53
472.17	3445.42
472.39	3507.27
472.60	3432.64
472.81	3477.94
473.02	3453.61
473.23	3458.04
473.44	3513.25
473.65	3535.78
473.86	3460.74
474.07	3464.59
474.28	3517.35
474.49	3449.43
474.71	3455.91
474.92	3461.89
475.13	3446.90
475.34	3494.65
475.55	3442.47
475.76	3543.48
475.97	3496.46
476.18	3463.44
476.39	3498.59
476.60	3473.27
476.81	3483.19
477.02	3470.73
477.23	3457.14
477.44	3483.27
477.65	3474.42
477.87	3501.04
478.08	3436.08
478.29	3529.63
478.50	3453.28
478.71	3475.98
478.92	3502.44
479.13	3444.52
479.34	3479.25
479.55	3462.62
479.76	3488.35
479.97	3450.01
480.18	3453.61
480.39	3479.66
480.60	3470.41
480.81	3498.09
481.02	3414.87
481.23	3470.49
481.44	3466.39
481.65	3499.41
481.86	3466.06
482.07	3493.75
482.28	3487.85
482.49	3484.17
482.71	3482.20
482.92	3472.21
483.13	3454.60
483.34	3512.43
483.55	3501.86
483.76	3454.92
483.97	3476.96
484.18	3484.82
484.39	3426.42
484.60	3476.39
484.81	3448.29
485.02	3513.00
485.23	3462.46
485.44	3490.80
485.65	3452.30
485.86	3469.18
486.07	3486.54
486.28	3484.66
486.49	3496.29
486.70	3522.51
486.91	3462.95
487.12	3459.18
487.33	3496.70
487.54	3482.94
487.75	3512.10
487.96	3512.59
488.17	3417.65
488.38	3459.10
488.59	3436.74
488.80	3467.13
489.01	3469.26
489.22	3541.76
489.43	3512.35
489.64	3441.98
489.85	3446.81
490.06	3504.40
490.26	3445.42
490.47	3476.80
490.68	3474.99
490.89	3546.84
491.10	3499.16
491.31	3486.71
491.52	3513.90
491.73	3499.00
491.94	3449.03
492.15	3493.34
492.36	3529.06
492.57	3457.14
492.78	3467.70
492.99	3522.75
493.20	3502.03
493.41	3556.91
493.62	3456.81
493.83	3510.05
494.04	3480.73
494.25	3507.52
494.46	3490.15
494.67	3483.43
494.88	3464.84
495.08	3503.83
495.29	3501.45
495.50	3514.97
495.71	3535.20
495.92	3496.05
496.13	3449.11
496.34	3511.53
496.55	3520.54
496.76	3446.24
496.97	3477.21
497.18	3515.87
497.39	3485.23
497.60	3579.60
497.81	3506.78
498.02	3518.49
498.22	3488.02
498.43	3515.30
498.64	3488.26
498.85	3519.15
499.06	3485.23
499.27	3523.74
499.48	3488.51
499.69	3537.50
499.90	3546.10
500.11	3506.94
500.32	3551.59
500.52	3524.80
500.73	3513.99
500.94	3568.95
501.15	3541.10
501.36	3507.52
501.57	3555.19
501.78	3571.90
501.99	3513.99
502.20	3522.67
502.41	3563.88
502.61	3588.86
502.82	3583.13
503.03	3544.79
503.24	3594.84
503.45	3553.31
503.66	3541.10
503.87	3615.81
504.08	3588.70
504.28	3619.99
504.49	3662.34
504.70	3606.15
504.91	3564.45
505.12	3615.89
505.33	3636.05
505.54	3623.92
505.75	3623.51
505.95	3648.09
506.16	3614.75
506.37	3611.47
506.58	3615.98
506.79	3710.67
507.00	3683.72
507.21	3639.98
507.41	3677.82
507.62	3691.18
507.83	3682.99
508.04	3686.02
508.25	3660.54
508.46	3675.86
508.67	3645.88
508.87	3711.98
509.08	3729.11
509.29	3703.30
509.50	3721.08
509.71	3687.08
509.92	3759.50
510.12	3794.48
510.33	3732.79
510.54	3749.01
510.75	3772.69
510.96	3831.09
511.17	3822.66
511.37	3810.78
511.58	3825.93
511.79	3856.98
512.00	3844.86
512.21	3879.43
512.42	3927.76
512.62	3902.28
512.83	3886.72
513.04	3903.02
513.25	3971.09
513.46	3947.17
513.66	3974.86
513.87	3998.37
514.08	4023.60
514.29	4094.05
514.50	4046.95
514.71	4080.86
514.91	4096.76
515.12	4147.22
515.33	4134.77
515.54	4158.03
515.75	4227.09
515.95	4219.39
516.16	4171.55
516.37	4269.69
516.58	4280.09
516.78	4314.58
516.99	4323.67
517.20	4347.51
517.41	4385.19
517.62	4355.95
517.82	4385.27
518.03	4408.38
518.24	4502.34
518.45	4514.62
518.66	4553.45
518.86	4597.85
519.07	4588.02
519.28	4622.92
519.49	4651.10
519.69	4702.14
519.90	4705.09
520.11	4763.58
520.32	4759.07
520.52	4796.26
520.73	4786.43
520.94	4923.97
521.15	4912.42
521.36	4910.87
521.56	5021.70
521.77	4981.23
521.98	5034.89
522.19	5030.14
522.39	5143.43
522.60	5169.16
522.81	5126.23
523.02	5208.31
523.22	5242.55
523.43	5278.84
523.64	5279.17
523.84	5356.18
524.05	5447.11
524.26	5405.90
524.47	5406.06
524.67	5492.90
524.88	5570.39
525.09	5613.65
525.30	5568.75
525.50	5657.39
525.71	5684.34
525.92	5716.04
526.13	5762.41
526.33	5777.24
526.54	5800.34
526.75	5817.13
526.95	5906.34
527.16	5865.14
527.37	6056.83
527.58	6035.12
527.78	5992.52
527.99	6102.05
528.20	6100.74
528.40	6115.32
528.61	6121.95
528.82	6188.06
529.03	6252.28
529.23	6317.33
529.44	6300.53
529.65	6352.64
529.85	6392.78
530.06	6400.48
530.27	6394.17
530.47	6427.84
530.68	6540.39
530.89	6503.04
531.09	6633.53
531.30	6614.94
531.51	6639.51
531.72	6714.80
531.92	6657.21
532.13	6719.80
532.34	6740.19
532.54	6779.60
532.75	6805.89
532.96	6828.67
533.16	6853.90
533.37	6970.96
533.58	6930.65
533.78	7000.86
533.99	7046.73
534.20	7028.06
534.40	7050.66
534.61	7132.34
534.82	7043.46
535.02	7144.63
535.23	7180.51
535.44	7204.18
535.64	7198.12
535.85	7241.45
536.06	7223.60
536.26	7255.22
536.47	7282.25
536.68	7348.60
536.88	7331.07
537.09	7421.84
537.29	7394.72
537.50	7472.79
537.71	7390.14
537.91	7485.82
538.12	7497.29
538.33	7494.42
538.53	7546.60
538.74	7553.15
538.95	7582.07
539.15	7562.00
539.36	7634.66
539.56	7672.43
539.77	7650.56
539.98	7671.36
540.18	7675.54
540.39	7714.12
540.60	7732.23
540.80	7767.95
541.01	7808.66
541.21	7799.16
541.42	7821.11
541.63	7838.81
541.83	7877.55
542.04	7860.43
542.25	7945.55
542.45	7919.58
542.66	7924.74
542.86	7972.58
543.07	7981.18
543.28	8025.09
543.48	7958.57
543.69	8065.39
543.89	8065.47
544.10	8164.60
544.31	8083.17
544.51	8061.46
544.72	8164.51
544.92	8148.79
545.13	8144.94
545.33	8208.91
545.54	8186.63
545.75	8281.08
545.95	8183.27
546.16	8237.26
546.36	8353.01
546.57	8241.35
546.78	8150.18
546.98	8252.58
547.19	8182.29
547.39	8315.90
547.60	8409.78
547.80	8443.12
548.01	8467.70
548.22	8398.64
548.42	8482.11
548.63	8484.24
548.83	8431.49
549.04	8540.60
549.24	8479.49
549.45	8557.15
549.65	8563.05
549.86	8478.43
550.07	8543.96
550.27	8590.49
550.48	8603.35
550.68	8632.11
550.89	8630.14
551.09	8691.17
551.30	8646.93
551.50	8706.32
551.71	8635.47
551.91	8672.66
552.12	8715.91
552.33	8766.62
552.53	8691.33
552.74	8732.37
552.94	8795.94
553.15	8777.59
553.35	8792.91
553.56	8723.86
553.76	8828.55
553.97	8740.73
554.17	8778.41
554.38	8830.76
554.58	8775.87
554.79	8817.65
554.99	8750.48
555.20	8815.44
555.40	8754.33
555.61	8798.07
555.81	8724.59
556.02	8787.42
556.22	8815.11
556.43	8798.57
556.63	8823.22
556.84	8750.81
557.04	8825.27
557.25	8751.95
557.45	8754.66
557.66	8727.71
557.86	8686.58
558.07	8821.17
558.27	8714.19
558.48	8738.85
558.68	8673.07
558.89	8717.06
559.09	8693.63
559.30	8704.93
559.50	8614.41
559.71	8644.48
559.91	8672.49
560.12	8648.57
560.32	8648.74
560.53	8565.26
560.73	8602.78
560.94	8575.34
561.14	8473.76
561.35	8572.55
561.55	8523.48
561.76	8497.10
561.96	8452.13
562.17	8455.90
562.37	8464.83
562.57	8426.00
562.78	8389.71
562.98	8409.12
563.19	8403.39
563.39	8336.13
563.60	8378.98
563.80	8319.09
564.01	8364.64
564.21	8263.47
564.42	8165.66
564.62	8256.18
564.82	8279.04
565.03	8124.46
565.23	8134.45
565.44	8201.05
565.64	8076.78
565.85	8118.23
566.05	8128.88
566.25	8074.49
566.46	7988.22
566.66	8041.88
566.87	7967.25
567.07	7944.89
567.28	7851.58
567.48	7942.68
567.68	7843.39
567.89	7873.87
568.09	7782.28
568.30	7729.28
568.50	7768.52
568.71	7744.27
568.91	7722.73
569.11	7610.58
569.32	7632.21
569.52	7640.48
569.73	7520.80
569.93	7533.25
570.13	7504.58
570.34	7479.51
570.54	7458.29
570.75	7426.43
570.95	7381.78
571.15	7350.41
571.36	7361.30
571.56	7310.84
571.77	7296.75
571.97	7201.97
572.17	7223.84
572.38	7206.39
572.58	7217.37
572.79	7199.27
572.99	7199.51
573.19	7128.57
573.40	7076.14
573.60	7074.01
573.81	7044.85
574.01	7012.57
574.21	6985.05
574.42	6999.30
574.62	6940.40
574.82	6955.56
575.03	6864.38
575.23	6963.42
575.43	6777.55
575.64	6842.10
575.84	6846.36
576.05	6791.88
576.25	6790.33
576.45	6810.64
576.66	6725.20
576.86	6735.77
577.06	6714.72
577.27	6678.18
577.47	6674.25
577.67	6679.65
577.88	6597.82
578.08	6591.02
578.28	6626.90
578.49	6659.99
578.69	6575.95
578.89	6576.27
579.10	6541.95
579.30	6548.42
579.50	6520.81
579.71	6488.70
579.91	6470.19
580.11	6471.42
580.32	6428.74
580.52	6456.10
580.72	6482.39
580.93	6366.73
581.13	6366.73
581.33	6405.88
581.54	6379.42
581.74	6351.98
581.94	6387.94
582.15	6384.09
582.35	6354.36
582.55	6354.93
582.76	6227.30
582.96	6282.27
583.16	6255.48
583.37	6288.25
583.57	6250.97
583.77	6253.19
583.97	6242.62
584.18	6257.28
584.38	6222.63
584.58	6182.16
584.79	6187.00
584.99	6195.35
585.19	6123.43
585.40	6130.88
585.60	6150.05
585.80	6141.78
586.00	6158.73
586.21	6132.27
586.41	6117.12
586.61	6120.56
586.82	6097.95
587.02	6073.37
587.22	6117.36
587.42	6075.59
587.63	6069.20
587.83	5995.47
588.03	6020.70
588.23	6005.79
588.44	6005.55
588.64	5981.63
588.84	5992.60
589.05	5998.09
589.25	6010.71
589.45	6016.85
589.65	6010.62
589.86	5974.74
590.06	5920.35
590.26	5944.68
590.46	6014.15
590.67	5924.77
590.87	5971.79
591.07	5953.36
591.27	5949.35
591.48	5969.42
591.68	5895.61
591.88	5906.92
592.08	5870.54
592.29	5922.23
592.49	5910.27
592.69	5938.45
592.89	5913.63
593.10	5920.68
593.30	5868.09
593.50	5920.02
593.70	5900.03
593.90	5910.44
594.11	5878.41
594.31	5875.13
594.51	5951.56
594.71	5921.82
594.92	5903.80
595.12	5862.11
595.32	5849.90
595.52	5881.44
595.72	5787.07
595.93	5826.96
596.13	5886.60
596.33	5862.27
596.53	5870.71
596.73	5923.95
596.94	5876.28
597.14	5853.67
597.34	5831.39
597.54	5818.44
597.74	5855.14
597.95	5826.39
598.15	5831.47
598.35	5809.10
598.55	5803.94
598.75	5948.28
598.96	5852.93
599.16	5805.91
599.36	5791.49
599.56	5806.24
599.76	5773.63
599.97	5840.72
600.17	5772.81
600.37	5775.27
600.57	5773.22
600.77	5773.63
600.97	5762.33
601.18	5801.65
601.38	5817.62
601.58	5760.53
601.78	5761.02
601.98	5790.51
602.18	5738.41
602.39	5785.68
602.59	5781.58
602.79	5733.66
602.99	5762.66
603.19	5704.17
603.39	5716.70
603.60	5704.17
603.80	5688.44
604.00	5717.93
604.20	5667.79
604.40	5736.03
604.60	5638.80
604.80	5667.79
605.01	5652.07
605.21	5624.71
605.41	5623.56
605.61	5604.47
605.81	5611.52
606.01	5643.71
606.21	5597.67
606.42	5567.12
606.62	5552.45
606.82	5610.53
607.02	5521.90
607.22	5529.52
607.42	5537.30
607.62	5520.26
607.82	5510.10
608.03	5542.95
608.23	5476.10
608.43	5487.66
608.63	5498.71
608.83	5436.87
609.03	5441.37
609.23	5468.08
609.43	5412.29
609.63	5424.00
609.84	5401.39
610.04	5427.53
610.24	5358.39
610.44	5397.30
610.64	5348.56
610.84	5359.62
611.04	5324.06
611.24	5319.72
611.44	5279.66
611.64	5339.30
611.85	5268.03
612.05	5287.69
612.25	5227.81
612.45	5277.45
612.65	5240.10
612.85	5214.13
613.05	5209.38
613.25	5220.11
613.45	5151.79
613.65	5229.37
613.85	5126.97
614.05	5177.10
614.25	5169.89
614.46	5146.79
614.66	5155.39
614.86	5142.04
615.06	5074.54
615.26	5109.52
615.46	5074.05
615.66	5118.61
615.86	5077.82
616.06	5027.35
616.26	5051.03
616.46	5079.62
616.66	4971.57
616.86	5017.77
617.06	5067.90
617.26	5033.33
617.46	5023.67
617.66	4988.20
617.86	4989.26
618.07	4961.33
618.27	4955.18
618.47	4992.54
618.67	4956.90
618.87	4970.67
619.07	4907.02
619.27	4931.84
619.47	4913.16
619.67	4929.87
619.87	4877.11
620.07	4906.11
620.27	4899.81
620.47	4901.69
620.67	4941.75
620.87	4882.03
621.07	4881.46
621.27	4919.22
621.47	4856.72
621.67	4881.21
621.87	4867.45
622.07	4843.45
622.27	4871.71
622.47	4843.45
622.67	4853.11
622.87	4864.83
623.07	4856.31
623.27	4839.51
623.47	4870.40
623.67	4813.71
623.87	4841.23
624.07	4827.06
624.27	4831.73
624.47	4821.74
624.67	4801.01
624.87	4826.82
625.07	4798.39
625.27	4811.66
625.47	4795.77
625.67	4791.18
625.87	4811.83
626.07	4768.57
626.27	4823.38
626.47	4830.26
626.67	4828.95
626.87	4835.58
627.07	4848.93
627.27	4785.20
627.47	4800.85
627.67	4831.08
627.87	4804.53
628.07	4830.42
628.27	4805.11
628.47	4833.62
628.67	4802.57
628.86	4790.77
629.06	4797.16
629.26	4845.17
629.46	4814.61
629.66	4859.26
629.86	4774.80
630.06	4772.09
630.26	4783.73
630.46	4786.68
630.66	4796.92
630.86	4858.36
631.06	4773.49
631.26	4818.05
631.46	4831.40
631.66	4799.46
631.86	4816.17
632.06	4750.63
632.26	4812.89
632.45	4785.45
632.65	4752.84
632.85	4796.26
633.05	4731.95
633.25	4782.83
633.45	4726.47
633.65	4747.03
633.85	4787.91
634.05	4689.36
634.25	4753.34
634.45	4723.84
634.65	4732.28
634.84	4725.48
635.04	4701.73
635.24	4688.78
635.44	4723.52
635.64	4728.84
635.84	4635.54
636.04	4688.95
636.24	4642.42
636.44	4647.09
636.64	4644.79
636.84	4600.31
637.03	4611.12
637.23	4616.86
637.43	4546.08
637.63	4599.41
637.83	4557.30
638.03	4568.28
638.23	4578.60
638.43	4502.34
638.62	4517.41
638.82	4542.07
639.02	4486.85
639.22	4492.10
639.42	4438.69
639.62	4498.08
639.82	4434.59
640.02	4471.04
640.21	4485.22
640.41	4400.84
640.61	4396.33
640.81	4382.57
641.01	4363.89
641.21	4330.88
641.41	4332.60
641.61	4306.88
641.80	4289.43
642.00	4371.59
642.20	4308.03
642.40	4236.26
642.60	4301.39
642.80	4260.68
642.99	4213.82
643.19	4216.36
643.39	4229.06
643.59	4199.24
643.79	4203.91
643.99	4178.92
644.19	4232.41
644.38	4165.49
644.58	4188.92
644.78	4117.56
644.98	4121.50
645.18	4095.69
645.38	4150.74
645.57	4076.85
645.77	4114.29
645.97	4044.98
646.17	4062.68
646.37	4095.94
646.56	4043.84
646.76	4077.67
646.96	4034.91
647.16	4016.64
647.36	4026.31
647.55	3985.02
647.75	3941.93
647.95	4008.28
648.15	3969.45
648.35	3981.91
648.55	3925.14
648.74	3961.84
648.94	3976.66
649.14	3920.30
649.34	3929.72
649.54	3947.66
649.73	3951.51
649.93	3933.49
650.13	3878.12
650.33	3922.84
650.52	3954.46
650.72	3917.52
650.92	3891.96
651.12	3877.79
651.32	3922.52
651.51	3917.19
651.71	3913.01
651.91	3903.35
652.11	3880.16
652.30	3915.06
652.50	3863.45
652.70	3879.02
652.90	3889.91
653.10	3877.62
653.29	3865.91
653.49	3856.49
653.69	3868.53
653.89	3839.53
654.08	3830.27
654.28	3853.79
654.48	3856.16
654.68	3860.34
654.87	3819.05
655.07	3853.87
655.27	3862.06
655.47	3811.02
655.66	3800.62
655.86	3792.02
656.06	3805.13
656.26	3805.13
656.45	3765.31
656.65	3775.23
656.85	3784.07
657.04	3794.64
657.24	3752.78
657.44	3795.21
657.64	3776.13
657.83	3726.48
658.03	3763.59
658.23	3735.99
658.43	3719.93
658.62	3751.06
658.82	3749.99
659.02	3711.17
659.21	3703.87
659.41	3789.07
659.61	3672.66
659.81	3697.98
660.00	3674.88
660.20	3713.46
660.40	3640.96
660.59	3651.53
660.79	3682.58
660.99	3670.86
661.19	3697.89
661.38	3705.51
661.58	3639.32
661.78	3624.25
661.97	3590.33
662.17	3654.81
662.37	3625.23
662.56	3634.90
662.76	3609.18
662.96	3657.26
663.15	3653.82
663.35	3628.26
663.55	3569.69
663.74	3626.30
663.94	3607.70
664.14	3603.77
664.33	3569.36
664.53	3583.78
664.73	3610.81
664.93	3644.32
665.12	3572.07
665.32	3574.36
665.52	3579.85
665.71	3607.21
665.91	3593.69
666.10	3553.06
666.30	3583.62
666.50	3634.33
666.69	3546.26
666.89	3577.56
667.09	3576.33
667.28	3597.46
667.48	3572.23
667.68	3543.40
667.87	3570.43
668.07	3558.22
668.27	3545.53
668.46	3548.23
668.66	3551.10
668.86	3564.61
669.05	3521.03
669.25	3538.15
669.44	3542.74
669.64	3547.00
669.84	3522.10
670.03	3555.52
670.23	3489.25
670.43	3559.78
670.62	3505.47
670.82	3515.95
671.01	3537.66
671.21	3545.28
671.41	3477.12
671.60	3538.97
671.80	3533.89
672.00	3496.62
672.19	3525.78
672.39	3498.01
672.58	3523.65
672.78	3508.99
672.98	3558.30
673.17	3547.82
673.37	3530.21
673.56	3535.45
673.76	3542.58
673.96	3546.02
674.15	3537.25
674.35	3538.73
674.54	3552.90
674.74	3579.52
674.94	3506.86
675.13	3557.24
675.33	3527.75
675.52	3527.26
675.72	3525.13
675.91	3502.35
676.11	3516.85
676.31	3526.44
676.50	3505.88
676.70	3525.78
676.89	3479.25
677.09	3548.64
677.28	3535.29
677.48	3536.68
677.68	3521.11
677.87	3529.31
678.07	3518.25
678.26	3551.75
678.46	3505.14
678.65	3538.15
678.85	3520.05
679.04	3520.21
679.24	3497.68
679.44	3534.71
679.63	3592.63
679.83	3523.57
680.02	3515.63
680.22	3537.58
680.41	3556.50
680.61	3579.19
680.80	3550.60
681.00	3560.43
681.19	3558.71
681.39	3593.61
681.59	3553.31
681.78	3552.24
681.98	3574.28
682.17	3537.66
682.37	3571.74
682.56	3599.18
682.76	3552.41
682.95	3585.50
683.15	3547.00
683.34	3566.74
683.54	3571.49
683.73	3584.19
683.93	3595.09
684.12	3559.53
684.32	3619.25
684.51	3616.88
684.71	3652.27
684.90	3645.71
685.10	3608.93
685.29	3681.43
685.49	3686.34
685.68	3631.54
685.88	3684.79
686.07	3689.87
686.27	3630.64
686.46	3716.74
686.66	3721.24
686.85	3767.12
687.05	3714.52
687.24	3776.13
687.44	3805.21
687.63	3850.10
687.83	3803.73
688.02	3851.82
688.22	3885.24
688.41	3926.20
688.61	3939.64
688.80	3972.24
689.00	4036.46
689.19	4023.77
689.39	4118.14
689.58	4111.01
689.77	4162.78
689.97	4207.51
690.16	4274.44
690.36	4245.11
690.55	4332.44
690.75	4431.48
690.94	4417.47
691.14	4483.09
691.33	4536.91
691.53	4633.00
691.72	4698.29
691.91	4745.47
692.11	4808.71
692.30	4872.61
692.50	4947.32
692.69	5110.34
692.89	5116.65
693.08	5213.15
693.28	5310.46
693.47	5386.24
693.66	5517.97
693.86	5585.88
694.05	5668.04
694.25	5802.88
694.44	5870.54
694.64	5963.93
694.83	6057.48
695.02	6181.51
695.22	6353.95
695.41	6423.33
695.61	6548.01
695.80	6671.38
695.99	6858.98
696.19	6906.57
696.38	7063.94
696.58	7221.47
696.77	7390.87
696.96	7496.06
697.16	7642.61
697.35	7816.44
697.55	7958.16
697.74	8091.85
697.93	8271.91
698.13	8398.15
698.32	8596.88
698.52	8704.69
698.71	8855.83
698.90	9152.78
699.10	9257.31
699.29	9437.53
699.49	9568.68
699.68	9677.72
699.87	9928.22
700.07	10169.48
700.26	10295.88
700.45	10467.33
700.65	10589.80
700.84	10944.75
701.04	11007.42
701.23	11232.29
701.42	11458.88
701.62	11644.34
701.81	11819.48
702.00	11969.48
702.20	12157.07
702.39	12348.35
702.58	12602.95
702.78	12722.88
702.97	12950.62
703.17	13096.84
703.36	13369.63
703.55	13502.75
703.75	13759.81
703.94	13947.16
704.13	14067.91
704.33	14275.33
704.52	14553.19
704.71	14732.35
704.91	14962.54
705.10	15073.62
705.29	15356.41
705.49	15623.79
705.68	15771.65
705.87	15937.37
706.07	16139.30
706.26	16417.75
706.45	16517.52
706.65	16610.34
706.84	17061.96
707.03	17338.51
707.23	17331.22
707.42	17531.19
707.61	17841.33
707.80	17945.61
708.00	18206.20
708.19	18430.57
708.38	18802.89
708.58	18778.81
708.77	19199.63
708.96	19229.36
709.16	19463.81
709.35	19912.89
709.54	19972.28
709.74	20121.05
709.93	20279.23
710.12	20679.41
710.31	21014.54
710.51	21035.51
710.70	21307.89
710.89	21561.18
711.09	21540.04
711.28	21828.73
711.47	22120.52
711.66	22325.32
711.86	22569.60
712.05	22843.04
712.24	23162.04
712.43	23253.05
712.63	23348.24
712.82	23750.38
713.01	23951.08
713.21	23983.35
713.40	24313.32
713.59	24757.24
713.78	24741.18
713.98	25117.52
714.17	25239.82
714.36	25518.18
714.55	25540.05
714.75	25990.53
714.94	26120.78
715.13	26599.59
715.32	26383.65
715.52	26875.41
715.71	26998.78
715.90	27247.98
716.09	27435.57
716.29	27961.33
716.48	27972.63
716.67	27823.46
716.86	28354.62
717.06	28608.32
717.25	28878.41
717.44	29175.77
717.63	29526.96
717.82	29316.18
718.02	29794.91
718.21	29969.07
718.40	30258.08
718.59	30492.70
718.79	30622.21
718.98	30797.85
719.17	31234.64
719.36	31537.74
719.55	31525.37
719.75	31645.70
719.94	31958.88
720.13	32281.48
720.32	32517.98
720.51	32693.28
720.71	32799.28
720.90	32824.27
721.09	33202.24
721.28	33262.13
721.47	33798.69
721.67	33906.83
721.86	34220.25
722.05	34401.12
722.24	34314.45
722.43	34857.49
722.63	34751.08
722.82	35048.45
723.01	35372.43
723.20	35342.29
723.39	35641.29
723.58	36022.95
723.78	35781.54
723.97	36593.27
724.16	36259.29
724.35	36692.23
724.54	36746.29
724.73	37051.44
724.93	37099.28
725.12	37495.11
725.31	37204.79
725.50	37750.78
725.69	38171.43
725.88	38022.67
726.08	38044.05
726.27	38635.34
726.46	38359.93
726.65	39061.24
726.84	38690.72
727.03	39119.97
727.23	39472.88
727.42	39390.88
727.61	39734.77
727.80	39538.49
727.99	39938.01
728.18	40152.07
728.37	40176.97
728.56	40313.12
728.76	40320.90
728.95	40730.17
729.14	40855.91
729.33	40977.97
729.52	41123.87
729.71	41379.37
729.90	41600.63
730.09	41459.73
730.29	41806.25
730.48	41564.84
730.67	42152.19
730.86	41976.40
731.05	42476.51
731.24	42319.88
731.43	42646.00
731.62	42595.87
731.81	42697.77
732.01	43188.47
732.20	42771.17
732.39	43357.63
732.58	43260.15
732.77	42914.53
732.96	43624.77
733.15	43900.50
733.34	43612.40
733.53	43952.28
733.72	43975.95
733.92	44191.23
734.11	44089.24
734.30	44369.98
734.49	44720.02
734.68	44618.44
734.87	44635.15
735.06	44837.98
735.25	44942.18
735.44	44803.90
735.63	45029.59
735.82	45282.80
736.01	45100.12
736.20	45090.70
736.40	45623.99
736.59	45484.32
736.78	45873.44
736.97	45347.43
737.16	45591.14
737.35	45777.26
737.54	46010.89
737.73	45801.10
737.92	46058.57
738.11	46179.57
738.30	46162.36
738.49	46241.82
738.68	46149.50
738.87	46509.04
739.06	46099.20
739.25	46519.36
739.44	46502.98
739.63	46439.25
739.82	46357.57
740.01	46796.25
740.20	46483.65
740.39	46677.96
740.59	46885.95
740.78	47025.79
740.97	46916.92
741.16	46843.93
741.35	47165.54
741.54	47224.36
741.73	47161.69
741.92	46954.93
742.11	47193.23
742.30	47253.93
742.49	46912.74
742.68	47402.69
742.87	47260.65
743.06	46977.13
743.25	47381.40
743.44	47278.51
743.63	47535.16
743.82	47249.67
744.01	47275.06
744.20	47244.35
744.39	47556.29
744.58	47590.78
744.77	47506.24
744.96	47159.15
745.15	47670.73
745.34	47407.94
745.53	47757.16
745.72	47318.81
745.91	47473.80
746.10	47176.93
746.29	47637.88
746.48	47722.75
746.67	47730.53
746.86	47658.28
747.04	47715.21
747.23	47483.22
747.42	47990.63
747.61	47470.28
747.80	48249.82
747.99	47423.91
748.18	48008.48
748.37	47783.53
748.56	47536.06
748.75	47731.60
748.94	47695.14
749.13	47907.40
749.32	47674.09
749.51	47872.66
749.70	47844.32
749.89	47604.79
750.08	47849.72
750.27	47551.62
750.46	47699.08
750.65	48084.26
750.84	47564.32
751.02	47910.75
751.21	47620.68
751.40	47882.74
751.59	47832.77
751.78	47714.40
751.97	47750.60
752.16	47527.29
752.35	47940.49
752.54	47524.34
752.73	48007.25
752.92	47599.05
753.11	47627.48
753.30	47675.65
753.49	47951.30
753.67	47740.36
753.86	47409.33
754.05	47855.30
754.24	47515.00
754.43	47748.88
754.62	47707.43
754.81	47406.95
755.00	47607.82
755.19	47519.92
755.38	47294.23
755.56	47566.53
755.75	47803.03
755.94	47378.04
756.13	47494.61
756.32	47542.12
756.51	47210.43
756.70	47492.56
756.89	47297.18
757.08	47319.22
757.26	47212.64
757.45	47355.26
757.64	47094.43
757.83	47547.94
758.02	47182.66
758.21	47027.42
758.40	47295.05
758.59	47281.13
758.77	47124.17
758.96	47267.69
759.15	47303.33
759.34	46860.56
759.53	47142.27
759.72	47064.94
759.91	46631.43
760.09	47092.88
760.28	47225.01
760.47	46697.05
760.66	47096.73
760.85	46720.64
761.04	47239.76
761.23	46885.21
761.41	46945.92
761.60	47122.37
761.79	46787.73
761.98	46547.13
762.17	46882.35
762.36	46536.90
762.54	46841.39
762.73	46720.23
762.92	46383.46
763.11	46734.32
763.30	46847.94
763.49	46550.33
763.67	46513.71
763.86	46548.53
764.05	46685.91
764.24	46540.25
764.43	46978.27
764.61	46325.63
764.80	46502.41
764.99	46768.48
765.18	46291.55
765.37	46564.75
765.55	46646.83
765.74	46324.32
765.93	46109.61
766.12	46472.18
766.31	46414.67
766.49	46377.15
766.68	46497.08
766.87	46264.68
767.06	46366.75
767.25	46353.32
767.43	46320.88
767.62	46126.24
767.81	46395.91
768.00	46203.57
768.19	45925.37
768.37	46030.80
768.56	46123.53
768.75	46298.02
768.94	46229.04
769.12	45945.85
769.31	45857.46
769.50	45930.61
769.69	46162.28
769.88	45491.94
770.06	46302.94
770.25	45854.35
770.44	45659.95
770.63	46010.32
770.81	45929.88
771.00	45639.64
771.19	45850.01
771.38	45767.43
771.56	45918.74
771.75	45201.29
771.94	45717.87
772.13	45541.91
772.31	45373.81
772.50	45695.51
772.69	45565.09
772.88	45921.28
773.06	45213.74
773.25	45618.34
773.44	45681.66
773.62	45464.50
773.81	45493.74
774.00	45156.89
774.19	45366.03
774.37	45280.02
774.56	45410.27
774.75	44870.50
774.94	45415.59
775.12	45051.71
775.31	45277.23
775.50	45283.95
775.68	45162.87
775.87	45090.29
776.06	44953.32
776.25	45283.37
776.43	44927.68
776.62	45348.01
776.81	44788.50
776.99	45141.74
777.18	45017.55
777.37	44549.71
777.55	44762.78
777.74	45031.64
777.93	44828.15
778.12	44807.26
778.30	44804.80
778.49	44628.43
778.68	44954.80
778.86	44641.21
779.05	44892.38
779.24	44894.67
779.42	44704.29
779.61	44443.95
779.80	44622.37
779.98	44522.19
780.17	44875.09
780.36	44378.58
780.54	44776.05
780.73	43985.29
780.92	44568.96
781.10	44373.18
781.29	44166.66
781.48	44082.86
781.66	44272.33
781.85	44433.06
782.04	44099.07
782.22	44333.20
782.41	44044.68
782.60	44351.96
782.78	44193.28
782.97	44474.92
783.16	43751.66
783.34	43891.57
783.53	44077.53
783.71	43868.47
783.90	43906.16
784.09	43886.91
784.27	43936.88
784.46	43852.09
784.65	43860.53
784.83	43683.99
785.02	43596.01
785.20	44033.62
785.39	43350.91
785.58	43911.07
785.76	43801.87
785.95	43722.66
786.14	43808.84
786.32	43811.54
786.51	43617.07
786.69	43894.77
786.88	43769.35
787.07	43681.37
787.25	43735.60
787.44	43740.27
787.62	43762.23
787.81	43921.07
788.00	43961.37
788.18	43621.16
788.37	43587.41
788.55	44312.47
788.74	43777.87
788.93	43853.81
789.11	44230.06
789.30	44091.05
789.48	43841.28
789.67	43980.87
789.86	43949.00
790.04	44118.16
790.23	43993.81
790.41	43930.40
790.60	44279.62
790.78	44332.71
790.97	43824.97
791.16	44200.00
791.34	44777.85
791.53	44010.44
791.71	44774.90
791.90	44309.69
792.08	44506.87
792.27	44608.69
792.46	44460.01
792.64	44711.25
792.83	44634.33
793.01	44896.39
793.20	44813.16
793.38	44863.05
793.57	44714.94
793.75	44921.46
793.94	45112.16
794.12	45435.25
794.31	44982.40
794.50	45358.82
794.68	45449.42
794.87	45309.83
795.05	45618.67
795.24	45324.50
795.42	45187.86
795.61	45834.69
795.79	46001.64
795.98	45232.50
796.16	45787.34
796.35	45932.42
796.53	45630.14
796.72	45926.03
796.90	46051.85
797.09	45988.45
797.27	45939.87
797.46	45860.41
797.64	46055.62
797.83	45855.33
798.01	45992.38
798.20	46224.87
798.38	45963.30
798.57	46234.04
798.75	46055.79
798.94	45501.36
799.12	46675.34
799.31	46142.78
799.49	46190.95
799.68	45914.56
799.86	46085.69
800.05	46112.64
800.23	46070.78
800.42	45940.28
800.60	46474.47
800.79	45827.72
800.97	46273.61
801.16	46513.63
801.34	45968.30
801.53	45970.43
801.71	46285.24
801.90	45861.88
802.08	46451.13
802.27	46074.87
802.45	45937.58
802.64	46126.97
802.82	46446.13
803.00	45835.92
803.19	46042.19
803.37	46486.27
803.56	46002.62
803.74	46060.21
803.93	46323.82
804.11	46037.35
804.30	45864.42
804.48	46234.04
804.67	46307.11
804.85	45939.95
805.03	46404.43
805.22	45797.82
805.40	45702.80
805.59	46047.92
805.77	46070.12
805.96	45777.10
806.14	45753.92
806.32	45947.24
806.51	46312.77
806.69	45794.47
806.88	45764.40
807.06	45727.62
807.25	45777.75
807.43	45594.99
807.61	45716.81
807.80	45394.29
807.98	45722.87
808.17	45355.95
808.35	45159.35
808.53	45667.57
808.72	45328.51
808.90	45368.41
809.09	45458.84
809.27	45557.72
809.45	45060.15
809.64	45512.26
809.82	45168.69
810.01	45200.23
810.19	45227.26
810.37	45097.09
810.56	45115.52
810.74	45275.43
810.93	44879.84
811.11	45060.15
811.29	44887.38
811.48	45035.32
811.66	44996.82
811.84	44776.38
812.03	44750.82
812.21	44795.55
812.40	44898.36
812.58	45082.10
812.76	44560.28
812.95	45021.73
813.13	44390.13
813.31	44697.49
813.50	44729.19
813.68	44510.06
813.86	44801.45
814.05	44765.48
814.23	44110.05
814.42	44507.93
814.60	44195.00
814.78	44403.08
814.97	44346.72
815.15	44200.08
815.33	44357.45
815.52	44069.01
815.70	44122.50
815.88	44300.76
816.07	43812.69
816.25	44029.44
816.43	44181.81
816.62	43577.50
816.80	43859.79
816.98	43717.58
817.17	43719.95
817.35	43756.00
817.53	43700.62
817.72	43944.17
817.90	43395.72
818.08	43500.41
818.26	43772.87
818.45	43339.69
818.63	43528.35
818.81	43714.88
819.00	43129.24
819.18	43523.10
819.36	43485.18
819.55	43423.98
819.73	43255.97
819.91	43414.81
820.09	43133.58
820.28	43348.29
820.46	43001.77
820.64	43499.92
820.83	43008.41
821.01	43086.72
821.19	42957.13
821.38	43134.24
821.56	42859.81
821.74	42930.26
821.92	42734.88
822.11	43162.83
822.29	42565.23
822.47	42606.11
822.65	42665.33
822.84	42743.07
823.02	42269.83
823.20	42865.79
823.39	42263.36
823.57	42415.56
823.75	42444.15
823.93	42162.35
824.12	42437.27
824.30	42055.20
824.48	42182.42
824.66	42443.42
824.85	41522.57
825.03	42127.29
825.21	42228.46
825.39	42010.72
825.58	42037.26
825.76	41927.65
825.94	41960.83
826.12	41712.45
826.31	41585.07
826.49	41744.65
826.67	41746.04
826.85	41540.92
827.03	41656.91
827.22	41826.98
827.40	41478.90
827.58	41405.42
827.76	41582.69
827.95	41278.61
828.13	41456.21
828.31	41300.48
828.49	41552.88
828.67	41245.52
828.86	41086.19
829.04	41220.29
829.22	41118.79
829.40	41012.70
829.58	40972.24
829.77	41117.64
829.95	41107.73
830.13	41053.50
830.31	40910.55
830.49	41115.27
830.68	41068.00
830.86	40730.25
831.04	40642.92
831.22	40841.08
831.40	40718.12
831.59	40952.99
831.77	40535.04
831.95	40908.50
832.13	40418.55
832.31	40641.94
832.50	40575.18
832.68	40356.13
832.86	40477.86
833.04	40674.95
833.22	40065.40
833.40	40741.72
833.59	40191.30
833.77	40607.78
833.95	39737.64
834.13	40907.60
834.31	40300.42
834.49	40319.92
834.67	40264.46
834.86	40296.73
835.04	40109.71
835.22	40219.48
835.40	39975.86
835.58	39990.19
835.76	39997.49
835.95	39974.06
836.13	39814.31
836.31	39693.16
836.49	39910.24
836.67	39938.50
836.85	39795.56
837.03	39629.18
837.21	39717.24
837.40	39487.38
837.58	39137.17
837.76	39447.40
837.94	39440.03
838.12	39759.10
838.30	39366.55
838.48	39373.10
838.66	39319.12
838.85	39238.34
839.03	39244.32
839.21	39194.60
839.39	39051.41
839.57	39195.25
839.75	38889.94
839.93	39009.05
840.11	39083.85
840.29	39030.43
840.47	39077.62
840.66	38989.39
840.84	38871.27
841.02	38634.60
841.20	38836.61
841.38	38761.66
841.56	38746.42
841.74	39190.26
841.92	38675.64
842.10	38626.49
842.28	38823.02
842.46	38550.06
842.65	38478.63
842.83	38768.62
843.01	38894.53
843.19	38342.73
843.37	38583.73
843.55	38353.29
843.73	38528.76
843.91	38518.93
844.09	38327.82
844.27	38627.56
844.45	38159.64
844.63	38171.43
844.81	38189.13
844.99	38196.91
845.17	37986.30
845.35	38323.56
845.54	37893.07
845.72	37993.02
845.90	37989.00
846.08	37985.56
846.26	37624.22
846.44	38071.82
846.62	37556.88
846.80	37591.86
846.98	37681.56
847.16	37578.34
847.34	37684.51
847.52	37559.99
847.70	37361.09
847.88	37652.23
848.06	37430.89
848.24	37538.61
848.42	37436.70
848.60	37194.47
848.78	37420.65
848.96	37324.39
849.14	37246.82
849.32	37494.29
849.50	37077.49
849.68	37416.23
849.86	37339.06
850.04	37012.78
850.22	37110.50
850.40	36731.96
850.58	36955.76
850.76	37670.42
850.94	36527.41
851.12	37025.80
851.30	36713.77
851.48	37071.02
851.66	36679.61
851.84	36720.24
852.02	36634.72
852.20	36954.29
852.38	36486.53
852.56	36727.94
852.74	36712.87
852.92	36582.21
853.10	36446.06
853.28	36706.89
853.46	35979.86
853.64	36507.25
853.82	36270.76
854.00	36393.22
854.18	36150.58
854.36	36067.76
854.54	36315.07
854.72	35859.85
854.90	35852.31
855.07	35955.86
855.25	35900.73
855.43	35974.78
855.61	35846.50
855.79	35703.55
855.97	35889.10
856.15	35759.58
856.33	35606.39
856.51	35956.92
856.69	35371.94
856.87	35713.30
857.05	35561.67
857.23	35648.50
857.41	35183.37
857.59	35277.08
857.77	35339.09
857.94	35248.16
858.12	35484.25
858.30	35226.05
858.48	35168.70
858.66	35103.74
858.84	35453.45
859.02	34951.86
859.20	34803.10
859.38	35314.76
859.56	35110.79
859.74	34956.29
859.92	35062.37
860.09	34806.87
860.27	35094.32
860.45	34598.88
860.63	34766.15
860.81	34980.54
860.99	34755.75
861.17	34410.46
861.35	33730.62
861.53	33599.96
861.70	33648.04
861.88	34369.91
862.06	34342.88
862.24	33790.50
862.42	33790.34
862.60	34262.44
862.78	34273.33
862.96	34315.52
863.14	34076.40
863.31	34061.24
863.49	33939.76
863.67	33826.87
863.85	33812.21
864.03	34021.02
864.21	33942.95
864.39	33967.77
864.56	33639.85
864.74	33922.14
864.92	33625.27
865.10	33569.65
865.28	33680.24
865.46	33990.47
865.64	33196.18
865.81	33611.10
865.99	33029.56
866.17	33427.85
866.35	33244.35
866.53	33356.66
866.71	33239.68
866.88	33267.29
867.06	33031.36
867.24	33187.33
867.42	32927.81
867.60	33127.78
867.78	32823.53
867.95	33137.77
868.13	32770.04
868.31	33109.51
868.49	33023.82
868.67	32751.94
868.84	32605.38
869.02	32895.87
869.20	32218.40
869.38	32718.35
869.56	32429.26
869.73	32309.74
869.91	32467.51
870.09	32454.73
870.27	32215.45
870.45	32316.05
870.62	32005.41
870.80	32305.64
870.98	32173.18
871.16	32135.66
871.34	32086.26
871.51	32052.27
871.69	31768.99
871.87	31873.52
872.05	31817.49
872.23	31943.15
872.40	31580.91
872.58	31785.05
872.76	31576.07
872.94	31542.00
873.11	31587.95
873.29	31357.60
873.47	31533.31
873.65	31298.29
873.83	31327.20
874.00	31329.74
874.18	31415.43
874.36	31197.69
874.54	31378.08
874.71	31092.02
874.89	30917.94
875.07	31098.65
875.25	30954.97
875.42	31088.98
875.60	31044.42
875.78	31217.19
875.96	30944.48
876.13	31182.54
876.31	30802.11
876.49	30791.29
876.66	30542.50
876.84	31103.16
877.02	30745.91
877.20	30879.35
877.37	30867.80
877.55	30811.94
877.73	30760.90
877.91	30647.36
878.08	30912.04
878.26	30758.77
878.44	30731.49
878.61	30783.92
878.79	30627.54
878.97	30661.45
879.15	30953.57
879.32	30840.28
879.50	30734.77
879.68	31032.38
879.85	30620.90
880.03	30914.66
880.21	30612.46
880.38	30964.14
880.56	30511.70
880.74	31004.53
880.92	30528.33
881.09	30752.46
881.27	30762.21
881.45	30729.53
881.62	30687.91
881.80	30598.70
881.98	30556.84
882.15	30901.06
882.33	30676.36
882.51	30747.71
882.68	30533.41
882.86	30944.56
883.04	30475.00
883.21	30627.04
883.39	30966.68
883.57	30572.73
883.74	30741.65
883.92	30816.85
884.10	30775.07
884.27	30778.19
884.45	30617.21
884.63	30969.55
884.80	30716.09
884.98	30851.50
885.16	30681.68
885.33	30772.45
885.51	30847.65
885.69	30853.71
885.86	30717.73
886.04	30965.94
886.21	30573.72
886.39	30922.53
886.57	30472.30
886.74	31008.70
886.92	30871.82
887.10	30978.64
887.27	30850.27
887.45	30914.91
887.62	30843.31
887.80	30834.95
887.98	31144.69
888.15	30990.68
888.33	30875.91
888.51	31151.08
888.68	30900.57
888.86	31021.65
889.03	30815.21
889.21	31089.48
889.39	31060.72
889.56	31098.16
889.74	31013.29
889.91	31050.65
890.09	30993.14
890.27	31088.49
890.44	31032.62
890.62	31001.50
890.79	31080.87
890.97	31214.07
891.14	31061.79
891.32	31102.58
891.50	31006.57
891.67	31242.09
891.85	31107.91
892.02	31087.26
892.20	31468.43
892.38	31269.70
892.55	31071.62
892.73	31263.72
892.90	31050.65
893.08	31151.41
893.25	31049.75
893.43	31438.61
893.60	31012.96
893.78	31266.01
893.96	31028.53
894.13	31275.76
894.31	31369.97
894.48	31101.44
894.66	31122.00
894.83	31216.20
895.01	31175.16
895.18	31220.30
895.36	31012.06
895.53	31239.47
895.71	31025.01
895.89	31162.96
896.06	30941.45
896.24	31111.68
896.41	31017.80
896.59	31101.85
896.76	30686.60
896.94	31022.30
897.11	31053.92
897.29	30982.16
897.46	30790.47
897.64	30920.23
897.81	30818.00
897.99	30569.46
898.16	30992.24
898.34	30851.42
898.51	30769.91
898.69	30616.07
898.86	30753.94
899.04	30762.13
899.21	30426.92
899.39	30608.70
899.56	30438.39
899.74	30811.12
899.91	30545.86
900.09	30292.24
900.26	30592.88
900.44	30274.38
900.61	30339.35
900.79	30643.92
900.96	30391.45
901.14	30347.46
901.31	30320.26
901.49	30224.58
901.66	30304.20
901.84	30281.43
902.01	30057.55
902.19	30102.68
902.36	29824.90
902.54	29929.34
902.71	29889.69
902.88	30070.65
903.06	29515.24
903.23	30089.49
903.41	29643.12
903.58	29630.01
903.76	29354.19
903.93	29656.55
904.11	29719.14
904.28	29438.81
904.45	29472.81
904.63	29333.38
904.80	29012.92
904.98	29306.19
905.15	29023.24
905.33	29213.13
905.50	29066.90
905.68	29073.29
905.85	28924.61
906.02	28870.79
906.20	29008.00
906.37	28551.72
906.55	28399.26
906.72	28810.17
906.90	28466.85
907.07	28284.50
907.24	28383.29
907.42	28193.57
907.59	28174.15
907.77	28057.50
907.94	27914.96
908.11	28074.29
908.29	27909.47
908.46	27904.88
908.64	27752.84
908.81	27763.08
908.98	27522.73
909.16	27731.14
909.33	27463.02
909.51	27342.10
909.68	27311.88
909.85	27254.37
910.03	27291.64
910.20	26964.87
910.37	27022.87
910.55	26959.38
910.72	26846.09
910.90	26634.49
911.07	26616.30
911.24	26490.56
911.42	26700.84
911.59	26416.26
911.76	26414.46
911.94	26295.18
912.11	26283.06
912.29	26293.87
912.46	26084.57
912.63	26163.95
912.81	25913.60
912.98	26072.03
913.15	25799.74
913.33	25948.34
913.50	25807.85
913.67	25654.74
913.85	25610.09
914.02	25636.64
914.19	25477.71
914.37	25381.21
914.54	25400.38
914.71	25336.24
914.89	25348.77
915.06	25290.78
915.23	25144.14
915.41	25020.12
915.58	24953.02
915.75	24845.30
915.93	24902.97
916.10	24676.06
916.27	24582.75
916.45	24661.48
916.62	24361.65
916.79	24573.58
916.97	24317.25
917.14	24342.48
917.31	24154.32
917.49	24215.02
917.66	24192.33
917.83	24077.56
918.00	23973.93
918.18	23900.94
918.35	23677.96
918.52	23898.08
918.70	23653.38
918.87	23617.18
919.04	23664.93
919.21	23535.09
919.39	23254.36
919.56	23447.77
919.73	23218.07
919.91	23261.07
920.08	23213.23
920.25	22972.15
920.42	23218.07
920.60	22950.52
920.77	22817.98
920.94	22916.93
921.11	22587.95
921.29	22759.98
921.46	22417.48
921.63	22605.40
921.81	22395.03
921.98	22436.64
922.15	22256.83
922.32	22352.19
922.50	22112.49
922.67	22142.47
922.84	22005.83
923.01	21874.27
923.19	21837.65
923.36	21893.85
923.53	21448.62
923.70	21717.48
923.87	21562.24
924.05	21648.34
924.22	21386.28
924.39	21479.18
924.56	21145.52
924.74	21206.80
924.91	21181.40
925.08	21052.95
925.25	20970.46
925.43	20937.53
925.60	20676.54
925.77	20877.32
925.94	20695.71
926.11	20700.79
926.29	20531.54
926.46	20566.52
926.63	20525.23
926.80	20516.06
926.97	20305.61
927.15	20366.72
927.32	20110.56
927.49	20107.69
927.66	20132.19
927.83	20155.62
928.01	19948.12
928.18	19933.45
928.35	19722.76
928.52	19867.34
928.69	19523.12
928.87	19569.73
929.04	19486.42
929.21	19541.64
929.38	19292.60
929.55	19365.51
929.72	19151.13
929.90	19158.50
930.07	19086.00
930.24	18970.83
930.41	18945.27
930.58	18897.26
930.75	18937.57
930.93	18860.07
931.10	18884.89
931.27	18600.14
931.44	18666.42
931.61	18565.41
931.78	18678.29
931.95	18522.65
932.13	18304.74
932.30	18515.44
932.47	18187.36
932.64	18319.16
932.81	18200.54
932.98	18191.70
933.15	18126.08
933.33	17984.11
933.50	18107.89
933.67	17856.89
933.84	17865.33
934.01	17827.40
934.18	17789.23
934.35	17741.96
934.52	17596.64
934.70	17655.95
934.87	17582.30
935.04	17428.79
935.21	17430.18
935.38	17358.91
935.55	17274.86
935.72	17427.48
935.89	17208.18
936.06	17197.86
936.24	17026.40
936.41	17241.28
936.58	16977.99
936.75	16966.44
936.92	16933.67
937.09	16881.49
937.26	16699.55
937.43	16794.65
937.60	16805.14
937.77	16651.46
937.94	16645.56
938.12	16622.46
938.29	16467.88
938.46	16538.82
938.63	16261.61
938.80	16429.87
938.97	16249.73
939.14	16212.29
939.31	16159.87
939.48	16173.46
939.65	16014.95
939.82	15993.65
939.99	16011.84
940.16	15900.76
940.33	15834.73
940.50	15803.44
940.67	15738.31
940.85	15716.60
941.02	15641.07
941.19	15642.96
941.36	15557.68
941.53	15563.66
941.70	15529.50
941.87	15370.42
942.04	15389.67
942.21	15338.88
942.38	15322.66
942.55	15138.75
942.72	15225.66
942.89	15125.48
943.06	15043.72
943.23	15012.51
943.40	14941.08
943.57	14954.35
943.74	14859.49
943.91	14862.19
944.08	14838.93
944.25	14855.80
944.42	14620.61
944.59	14537.14
944.76	14640.52
944.93	14518.62
945.10	14504.21
945.27	14448.09
945.44	14289.99
945.61	14351.02
945.78	14276.64
945.95	14276.88
946.12	14135.33
946.29	14267.71
946.46	14188.00
946.63	14103.38
946.80	14128.69
946.97	14070.86
947.14	13928.89
947.31	14041.45
947.48	13951.58
947.65	13863.68
947.82	13881.71
947.99	13901.20
948.16	13683.95
948.33	13825.92
948.50	13609.16
948.67	13612.19
948.84	13533.47
949.01	13472.28
949.18	13462.28
949.35	13501.36
949.52	13336.62
949.68	13306.72
949.85	13276.82
950.02	13230.78
950.19	13187.03
950.36	13140.10
950.53	13137.72
950.70	13051.95
950.87	13015.09
951.04	13130.84
951.21	12893.36
951.38	12833.56
951.55	12905.48
951.72	12858.54
951.89	12784.90
952.06	12738.28
952.23	12718.46
952.39	12643.01
952.56	12482.94
952.73	12632.44
952.90	12483.93
953.07	12588.78
953.24	12348.43
953.41	12395.04
953.58	12280.03
953.75	12377.43
953.92	12228.75
954.09	12203.52
954.25	12119.55
954.42	12105.71
954.59	12051.23
954.76	12010.93
954.93	11968.33
955.10	11996.18
955.27	11890.26
955.44	11925.98
955.61	11817.11
955.77	11913.20
955.94	11842.50
956.11	11771.89
956.28	11776.72
956.45	11700.29
956.62	11725.19
956.79	11705.86
956.96	11644.83
957.12	11618.29
957.29	11556.52
957.46	11544.65
957.63	11437.50
957.80	11384.90
957.97	11386.05
958.14	11468.62
958.30	11251.46
958.47	11275.30
958.64	11195.59
958.81	11287.09
958.98	11161.02
959.15	11132.18
959.32	11211.73
959.48	11143.74
959.65	10957.53
959.82	11052.48
959.99	10982.85
960.16	11005.62
960.33	10953.52
960.49	10905.60
960.66	10840.55
960.83	10835.31
961.00	10834.98
961.17	10787.96
961.33	10710.96
961.50	10707.35
961.67	10673.52
961.84	10696.46
962.01	10572.84
962.18	10627.65
962.34	10506.82
962.51	10534.67
962.68	10390.98
962.85	10509.19
963.02	10337.49
963.18	10389.67
963.35	10244.43
963.52	10315.54
963.69	10271.79
963.86	10263.52
964.02	10094.19
964.19	10205.52
964.36	10126.71
964.53	10099.03
964.69	9961.16
964.86	10099.27
965.03	9957.22
965.20	10028.66
965.37	9891.44
965.53	9898.82
965.70	9874.65
965.87	9919.87
966.04	9813.95
966.20	9799.61
966.37	9783.31
966.54	9661.58
966.71	9730.88
966.87	9624.31
967.04	9665.92
967.21	9622.50
967.38	9603.09
967.54	9566.39
967.71	9551.89
967.88	9511.50
968.05	9465.71
968.21	9423.52
968.38	9376.17
968.55	9408.78
968.72	9330.14
968.88	9211.93
969.05	9333.74
969.22	9247.73
969.39	9243.88
969.55	9262.80
969.72	9114.61
969.89	9140.00
970.05	9209.88
970.22	9192.27
970.39	9111.74
970.56	9123.86
970.72	9053.74
970.89	9081.27
971.06	9017.53
971.22	9023.43
971.39	8994.51
971.56	9012.21
971.73	8890.56
971.89	8974.28
972.06	8860.00
972.23	8916.12
972.39	8740.89
972.56	8853.70
972.73	8694.04
972.89	8737.45
973.06	8777.43
973.23	8718.45
973.39	8635.79
973.56	8662.74
973.73	8590.33
973.89	8630.47
974.06	8541.91
974.23	8564.44
974.39	8484.08
974.56	8462.04
974.73	8414.20
974.89	8368.49
975.06	8418.05
975.23	8477.53
975.39	8295.75
975.56	8361.69
975.73	8339.33
975.89	8305.09
976.06	8275.51
976.23	8221.28
976.39	8217.35
976.56	8214.65
976.73	8214.57
976.89	8141.25
977.06	8074.98
977.23	8072.44
977.39	8069.82
977.56	8062.20
977.72	7960.95
977.89	8069.49
978.06	7942.43
978.22	7989.95
978.39	7878.13
978.56	7894.59
978.72	7865.43
978.89	7894.76
979.05	7827.66
979.22	7853.06
979.39	7785.15
979.55	7771.30
979.72	7775.56
979.88	7778.92
980.05	7682.26
980.22	7748.12
980.38	7677.59
980.55	7645.40
980.71	7591.49
980.88	7617.21
981.05	7602.72
981.21	7590.76
981.38	7573.14
981.54	7563.39
981.71	7490.00
981.88	7486.23
982.04	7483.11
982.21	7459.03
982.37	7419.38
982.54	7477.79
982.70	7350.00
982.87	7383.91
983.04	7288.64
983.20	7408.73
983.37	7248.83
983.53	7317.80
983.70	7281.02
983.86	7251.86
984.03	7221.38
984.20	7214.91
984.36	7205.41
984.53	7218.43
984.69	7131.11
984.86	7096.87
985.02	7102.36
985.19	7088.10
985.35	7062.38
985.52	7035.43
985.68	7021.58
985.85	7011.75
986.02	7007.99
986.18	6993.16
986.35	6982.02
986.51	7021.67
986.68	6945.32
986.84	6924.35
987.01	6942.53
987.17	6939.99
987.34	6912.22
987.50	6878.96
987.67	6813.76
987.83	6885.68
988.00	6786.56
988.16	6820.06
988.33	6755.76
988.49	6784.76
988.66	6715.94
988.82	6745.76
988.99	6718.57
989.15	6703.82
989.32	6597.08
989.48	6625.75
989.65	6569.80
989.81	6580.94
989.98	6561.45
990.14	6500.83
990.31	6543.01
990.47	6519.75
990.64	6494.68
990.80	6493.78
990.97	6455.03
991.13	6459.46
991.30	6472.48
991.46	6424.56
991.63	6402.77
991.79	6406.62
991.95	6335.10
992.12	6426.20
992.28	6345.84
992.45	6337.89
992.61	6321.51
992.78	6306.27
992.94	6245.73
993.11	6310.28
993.27	6259.41
993.44	6248.35
993.60	6226.89
993.76	6217.96
993.93	6218.21
994.09	6264.74
994.26	6174.79
994.42	6168.07
994.59	6129.32
994.75	6155.05
994.91	6079.68
995.08	6030.69
995.24	6028.89
995.41	6025.12
995.57	6042.00
995.74	5986.13
995.90	5992.85
996.06	5991.21
996.23	5972.20
996.39	5945.91
996.56	5924.94
996.72	5945.91
996.88	5959.75
997.05	5934.19
997.21	5892.09
997.38	5920.43
997.54	5810.50
997.70	5883.57
997.87	5864.48
998.03	5846.54
998.20	5757.82
998.36	5816.48
998.52	5757.66
998.69	5825.90
998.85	5735.30
999.02	5792.97
999.18	5707.77
999.34	5714.82
999.51	5719.57
999.67	5736.93
999.83	5711.21
1000.00	5666.89
1000.16	5622.17
1000.33	5645.76
1000.49	5606.93
1000.65	5646.09
1000.82	5648.71
1000.98	5569.16
1001.14	5561.30
1001.31	5550.00
1001.47	5587.60
1001.63	5548.85
1001.80	5472.25
1001.96	5489.05
1002.12	5467.83
1002.29	5520.09
1002.45	5467.01
1002.61	5448.99
1002.78	5441.70
1002.94	5443.17
1003.10	5389.27
1003.27	5411.22
1003.43	5369.61
1003.59	5372.97
1003.76	5390.83
1003.92	5382.31
1004.08	5350.28
1004.25	5406.31
1004.41	5344.71
1004.57	5327.59
1004.74	5283.02
1004.90	5366.74
1005.06	5258.61
1005.23	5259.35
1005.39	5276.80
1005.55	5284.66
1005.71	5260.90
1005.88	5241.00
1006.04	5260.58
1006.20	5222.65
1006.37	5140.16
1006.53	5159.32
1006.69	5157.36
1006.85	5191.85
1007.02	5099.93
1007.18	5135.57
1007.34	5105.91
1007.51	5144.25
1007.67	5092.64
1007.83	5083.63
1007.99	5073.64
1008.16	5073.64
1008.32	5009.25
1008.48	5076.75
1008.64	5057.99
1008.81	5049.88
1008.97	5033.09
1009.13	5020.64
1009.29	4994.67
1009.46	5022.19
1009.62	5014.25
1009.78	4963.21
1009.95	4996.63
1010.11	4970.67
1010.27	4905.54
1010.43	4904.07
1010.59	4958.62
1010.76	4917.09
1010.92	4890.47
1011.08	4911.60
1011.24	4858.11
1011.41	4961.65
1011.57	4851.72
1011.73	4879.24
1011.89	4804.70
1012.06	4862.53
1012.22	4788.72
1012.38	4822.72
1012.54	4806.25
1012.70	4791.26
1012.87	4748.01
1013.03	4788.40
1013.19	4777.17
1013.35	4793.72
1013.51	4689.36
1013.68	4770.62
1013.84	4710.98
1014.00	4747.03
1014.16	4674.69
1014.32	4687.80
1014.49	4703.28
1014.65	4753.42
1014.81	4631.19
1014.97	4680.59
1015.13	4663.55
1015.30	4682.15
1015.46	4676.91
1015.62	4644.14
1015.78	4605.06
1015.94	4628.74
1016.10	4593.43
1016.27	4595.40
1016.43	4564.35
1016.59	4608.42
1016.75	4571.89
1016.91	4565.33
1017.07	4546.74
1017.24	4573.85
1017.40	4529.94
1017.56	4521.59
1017.72	4492.83
1017.88	4533.14
1018.04	4504.55
1018.21	4515.61
1018.37	4501.03
1018.53	4491.36
1018.69	4475.63
1018.85	4461.13
1019.01	4426.32
1019.17	4469.73
1019.34	4422.22
1019.50	4415.75
1019.66	4388.63
1019.82	4422.30
1019.98	4380.36
1020.14	4435.82
1020.30	4428.28
1020.46	4411.49
1020.63	4351.44
1020.79	4361.19
1020.95	4386.75
1021.11	4384.54
1021.27	4320.80
1021.43	4335.71
1021.59	4418.53
1021.75	4308.43
1021.91	4279.44
1022.07	4312.12
1022.24	4308.93
1022.40	4302.29
1022.56	4266.33
1022.72	4332.68
1022.88	4267.56
1023.04	4319.99
1023.20	4252.89
1023.36	4236.76
1023.52	4276.65
1023.68	4267.64
1023.84	4224.96
1024.01	4236.02
1024.17	4206.69
1024.33	4230.04
1024.49	4204.23
1024.65	4196.70
1024.81	4198.42
1024.97	4215.13
1025.13	4204.97
1025.29	4184.82
1025.45	4138.62
1025.61	4216.93
1025.77	4138.86
1025.93	4164.01
1026.09	4121.25
1026.25	4167.04
1026.41	4131.82
1026.57	4125.51
1026.73	4175.40
1026.90	4126.08
1027.06	4120.60
1027.22	4124.12
1027.38	4108.55
1027.54	4139.68
1027.70	4104.78
1027.86	4105.11
1028.02	4102.98
1028.18	4095.28
1028.34	4092.17
1028.50	4094.54
1028.66	4057.19
1028.82	4110.36
1028.98	4044.00
1029.14	4025.00
1029.30	4053.42
1029.46	4054.16
1029.62	4062.84
1029.78	4009.92
1029.94	4028.85
1030.10	4033.84
1030.26	3956.68
1030.42	4006.15
1030.58	3986.99
1030.74	4008.61
1030.90	3952.74
1031.06	3973.63
1031.22	3953.73
1031.38	3975.68
1031.54	3972.90
1031.70	3970.11
1031.86	3970.93
1032.02	3962.00
1032.18	3908.26
1032.34	3957.49
1032.50	3918.09
1032.66	3957.09
1032.82	3877.79
1032.98	3922.60
1033.14	3901.46
1033.30	3952.66
1033.45	3888.93
1033.61	3925.05
1033.77	3878.85
1033.93	3889.09
1034.09	3876.07
1034.25	3912.93
1034.41	3879.18
1034.57	3875.99
1034.73	3867.55
1034.89	3880.16
1035.05	3855.67
1035.21	3859.52
1035.37	3842.48
1035.53	3844.69
1035.69	3852.56
1035.85	3904.41
1036.01	3838.22
1036.16	3859.36
1036.32	3860.42
1036.48	3819.63
1036.64	3808.16
1036.80	3860.67
1036.96	3814.71
1037.12	3809.88
1037.28	3831.59
1037.44	3806.60
1037.60	3801.19
1037.76	3774.49
1037.91	3817.17
1038.07	3812.91
1038.23	3808.40
1038.39	3805.45
1038.55	3792.67
1038.71	3808.89
1038.87	3752.21
1039.03	3835.11
1039.19	3746.39
1039.35	3758.60
1039.50	3790.79
1039.66	3784.56
1039.82	3728.37
1039.98	3756.71
1040.14	3733.77
1040.30	3749.34
1040.46	3707.31
1040.62	3705.43
1040.77	3732.63
1040.93	3785.38
1041.09	3712.07
1041.25	3692.16
1041.41	3722.14
1041.57	3726.07
1041.73	3726.07
1041.88	3726.07

