SpectraSuite Data File
++++++++++++++++++++++++++++++++++++
Date: Tue Sep 20 12:33:09 EDT 2022
User: Laboratoire
Dark Spectrum Present: No
Reference Spectrum Present: No
Number of Sampled Component Spectra: 1
Spectrometers: FLMT00174
Integration Time (usec): 60000 (FLMT00174)
Spectra Averaged: 25 (FLMT00174)
Boxcar Smoothing: 0 (FLMT00174)
Correct for Electrical Dark: No (FLMT00174)
Strobe/Lamp Enabled: No (FLMT00174)
Correct for Detector Non-linearity: No (FLMT00174)
Correct for Stray Light: No (FLMT00174)
Number of Pixels in Processed Spectrum: 3648
>>>>>Begin Processed Spectral Data<<<<<
345.74	3188.93
345.96	3188.93
346.18	3188.93
346.39	3183.12
346.61	3401.18
346.83	3389.31
347.05	3396.52
347.27	3371.69
347.49	3422.24
347.71	3417.40
347.93	3443.29
348.15	3428.96
348.36	3424.78
348.58	3424.20
348.80	3407.00
349.02	3420.35
349.24	3434.03
349.46	3633.42
349.68	3641.12
349.90	3659.39
350.11	3624.33
350.33	3611.39
350.55	3615.48
350.77	3635.96
350.99	3586.57
351.21	3643.66
351.43	3594.76
351.65	3650.79
351.86	3608.77
352.08	3632.28
352.30	3570.67
352.52	3645.96
352.74	3587.22
352.96	3560.35
353.18	3633.75
353.39	3624.66
353.61	3605.74
353.83	3644.24
354.05	3706.00
354.27	3643.42
354.49	3635.80
354.70	3596.81
354.92	3618.60
355.14	3569.28
355.36	3607.54
355.58	3613.44
355.80	3598.12
356.02	3639.98
356.23	3645.30
356.45	3618.02
356.67	3644.40
356.89	3666.19
357.11	3627.03
357.33	3657.84
357.54	3585.26
357.76	3581.00
357.98	3583.37
358.20	3649.40
358.42	3590.50
358.63	3591.48
358.85	3644.32
359.07	3656.03
359.29	3544.71
359.51	3579.93
359.73	3580.42
359.94	3592.63
360.16	3580.10
360.38	3569.94
360.60	3562.15
360.82	3610.32
361.03	3662.34
361.25	3595.82
361.47	3667.01
361.69	3668.57
361.91	3617.53
362.12	3604.26
362.34	3622.45
362.56	3632.93
362.78	3621.71
363.00	3646.45
363.21	3601.31
363.43	3652.84
363.65	3572.80
363.87	3591.65
364.09	3639.08
364.30	3586.57
364.52	3583.21
364.74	3638.09
364.96	3612.62
365.17	3592.46
365.39	3613.93
365.61	3556.34
365.83	3619.17
366.05	3593.37
366.26	3590.33
366.48	3597.54
366.70	3673.48
366.92	3638.18
367.13	3626.13
367.35	3589.35
367.57	3634.16
367.79	3615.98
368.01	3648.66
368.22	3638.83
368.44	3614.66
368.66	3614.26
368.88	3629.00
369.09	3602.13
369.31	3659.23
369.53	3570.35
369.75	3609.67
369.96	3636.78
370.18	3608.60
370.40	3655.46
370.62	3641.94
370.83	3580.59
371.05	3689.54
371.27	3657.02
371.49	3566.25
371.70	3622.28
371.92	3608.93
372.14	3610.73
372.36	3577.15
372.57	3666.68
372.79	3625.89
373.01	3604.51
373.22	3591.81
373.44	3610.00
373.66	3614.42
373.88	3613.68
374.09	3580.42
374.31	3594.59
374.53	3565.60
374.75	3642.27
374.96	3624.50
375.18	3650.38
375.40	3600.25
375.61	3592.63
375.83	3574.28
376.05	3588.37
376.27	3657.59
376.48	3559.45
376.70	3611.22
376.92	3593.69
377.13	3604.02
377.35	3592.06
377.57	3596.48
377.79	3576.24
378.00	3579.19
378.22	3648.01
378.44	3573.54
378.65	3654.31
378.87	3639.73
379.09	3635.72
379.30	3616.63
379.52	3619.91
379.74	3611.22
379.96	3576.33
380.17	3585.01
380.39	3591.24
380.61	3585.17
380.82	3594.02
381.04	3584.68
381.26	3625.48
381.47	3624.66
381.69	3656.85
381.91	3592.96
382.12	3612.78
382.34	3673.40
382.56	3599.92
382.77	3606.80
382.99	3596.64
383.21	3608.77
383.42	3660.87
383.64	3610.90
383.86	3611.06
384.07	3643.42
384.29	3601.48
384.51	3577.97
384.72	3584.76
384.94	3591.32
385.16	3580.18
385.37	3623.59
385.59	3570.51
385.81	3615.07
386.02	3549.87
386.24	3634.57
386.46	3566.50
386.67	3617.78
386.89	3667.91
387.11	3676.35
387.32	3604.83
387.54	3609.26
387.76	3629.25
387.97	3685.03
388.19	3634.08
388.40	3611.31
388.62	3607.54
388.84	3663.16
389.05	3610.90
389.27	3615.57
389.49	3619.99
389.70	3584.27
389.92	3603.85
390.14	3604.92
390.35	3624.09
390.57	3639.16
390.78	3576.57
391.00	3567.07
391.22	3560.93
391.43	3568.63
391.65	3616.96
391.86	3660.38
392.08	3620.64
392.30	3578.21
392.51	3604.67
392.73	3687.90
392.95	3610.41
393.16	3566.66
393.38	3645.88
393.59	3550.77
393.81	3633.51
394.03	3627.36
394.24	3613.35
394.46	3618.43
394.67	3595.50
394.89	3569.53
395.11	3619.99
395.32	3707.89
395.54	3638.83
395.75	3653.25
395.97	3590.09
396.19	3566.50
396.40	3644.32
396.62	3616.71
396.83	3604.18
397.05	3633.83
397.26	3591.48
397.48	3590.09
397.70	3606.96
397.91	3637.36
398.13	3583.37
398.34	3642.44
398.56	3651.77
398.78	3661.77
398.99	3722.22
399.21	3580.83
399.42	3685.28
399.64	3572.56
399.85	3641.37
400.07	3587.06
400.29	3689.13
400.50	3601.48
400.72	3640.31
400.93	3604.02
401.15	3550.60
401.36	3631.05
401.58	3631.46
401.79	3623.10
402.01	3644.24
402.23	3639.81
402.44	3729.60
402.66	3635.55
402.87	3667.99
403.09	3665.13
403.30	3644.57
403.52	3603.20
403.73	3552.49
403.95	3585.09
404.16	3608.77
404.38	3624.17
404.60	3599.43
404.81	3669.06
405.03	3636.78
405.24	3676.60
405.46	3654.56
405.67	3660.54
405.89	3616.14
406.10	3653.99
406.32	3588.29
406.53	3689.70
406.75	3733.94
406.96	3644.24
407.18	3632.44
407.39	3607.87
407.61	3705.84
407.82	3606.96
408.04	3689.13
408.25	3645.14
408.47	3622.37
408.68	3646.04
408.90	3606.39
409.12	3677.25
409.33	3679.05
409.55	3630.80
409.76	3658.16
409.98	3661.60
410.19	3687.74
410.41	3653.08
410.62	3631.62
410.84	3612.70
411.05	3643.58
411.27	3683.39
411.48	3679.30
411.70	3691.50
411.91	3659.56
412.12	3652.51
412.34	3605.41
412.55	3663.00
412.77	3637.52
412.98	3671.02
413.20	3612.78
413.41	3654.72
413.63	3643.34
413.84	3646.20
414.06	3692.16
414.27	3615.73
414.49	3635.47
414.70	3688.56
414.92	3671.19
415.13	3634.24
415.35	3691.42
415.56	3668.98
415.78	3649.48
415.99	3681.43
416.21	3652.18
416.42	3710.67
416.63	3682.82
416.85	3686.75
417.06	3670.37
417.28	3705.68
417.49	3661.85
417.71	3700.84
417.92	3642.52
418.14	3651.61
418.35	3691.10
418.57	3717.15
418.78	3677.25
418.99	3656.28
419.21	3721.49
419.42	3664.72
419.64	3670.70
419.85	3686.75
420.07	3720.50
420.28	3706.58
420.50	3724.35
420.71	3687.33
420.92	3643.17
421.14	3728.70
421.35	3639.90
421.57	3657.67
421.78	3671.27
422.00	3664.80
422.21	3692.57
422.42	3657.02
422.64	3692.00
422.85	3699.86
423.07	3659.56
423.28	3665.95
423.50	3648.58
423.71	3652.35
423.92	3717.06
424.14	3689.70
424.35	3689.13
424.57	3714.36
424.78	3764.25
424.99	3670.45
425.21	3652.68
425.42	3690.03
425.64	3684.21
425.85	3686.26
426.06	3769.33
426.28	3707.23
426.49	3680.86
426.71	3731.73
426.92	3683.72
427.13	3716.33
427.35	3751.22
427.56	3756.06
427.78	3683.64
427.99	3725.66
428.20	3734.68
428.42	3742.70
428.63	3699.45
428.84	3674.55
429.06	3710.51
429.27	3754.58
429.49	3672.09
429.70	3667.50
429.91	3740.98
430.13	3715.67
430.34	3640.80
430.56	3769.41
430.77	3708.63
430.98	3688.39
431.20	3779.24
431.41	3735.90
431.62	3669.55
431.84	3705.43
432.05	3691.42
432.26	3770.97
432.48	3704.61
432.69	3810.70
432.91	3759.33
433.12	3727.39
433.33	3752.04
433.55	3801.69
433.76	3697.24
433.97	3779.16
434.19	3715.02
434.40	3710.51
434.61	3740.08
434.83	3760.73
435.04	3737.30
435.25	3722.47
435.47	3742.70
435.68	3757.20
435.89	3753.84
436.11	3706.25
436.32	3788.91
436.53	3720.83
436.75	3700.35
436.96	3768.59
437.17	3738.94
437.39	3693.39
437.60	3732.71
437.81	3713.38
438.03	3788.25
438.24	3707.72
438.45	3772.19
438.67	3723.29
438.88	3805.62
439.09	3788.74
439.31	3810.45
439.52	3817.25
439.73	3784.40
439.94	3736.40
440.16	3771.87
440.37	3792.92
440.58	3795.05
440.80	3752.29
441.01	3784.24
441.22	3804.72
441.44	3739.92
441.65	3812.17
441.86	3772.44
442.08	3851.25
442.29	3842.64
442.50	3835.27
442.71	3800.21
442.93	3813.56
443.14	3785.96
443.35	3866.81
443.57	3823.07
443.78	3768.59
443.99	3811.68
444.20	3883.44
444.42	3809.30
444.63	3813.65
444.84	3842.15
445.06	3867.88
445.27	3830.36
445.48	3829.62
445.69	3889.67
445.91	3825.93
446.12	3803.41
446.33	3848.30
446.54	3835.60
446.76	3829.78
446.97	3816.92
447.18	3790.13
447.39	3900.56
447.61	3881.72
447.82	3885.73
448.03	3879.26
448.25	3864.11
448.46	3890.49
448.67	3930.71
448.88	3883.69
449.10	3917.60
449.31	3933.25
449.52	3930.13
449.73	3909.08
449.95	3937.34
450.16	3944.96
450.37	3982.89
450.58	3927.51
450.79	3878.69
451.01	3943.81
451.22	4002.55
451.43	3988.95
451.64	3991.33
451.86	4003.29
452.07	3931.12
452.28	3910.39
452.49	4060.47
452.71	3995.67
452.92	4012.79
453.13	4003.70
453.34	4081.68
453.55	4017.38
453.77	4002.80
453.98	4030.32
454.19	4025.73
454.40	3964.54
454.62	4085.45
454.83	4018.52
455.04	4043.76
455.25	4071.20
455.46	4112.73
455.68	4103.72
455.89	4066.94
456.10	4035.65
456.31	4103.15
456.52	4055.39
456.74	4137.06
456.95	4069.72
457.16	4135.26
457.37	4081.68
457.58	4104.29
457.80	4139.93
458.01	4065.30
458.22	4134.11
458.43	4146.32
458.64	4093.07
458.86	4124.28
459.07	4106.01
459.28	4155.49
459.49	4139.35
459.70	4179.09
459.91	4213.57
460.13	4137.22
460.34	4121.82
460.55	4140.34
460.76	4148.94
460.97	4218.73
461.19	4138.94
461.40	4163.60
461.61	4207.02
461.82	4208.58
462.03	4186.87
462.24	4180.97
462.46	4160.08
462.67	4166.22
462.88	4189.98
463.09	4227.83
463.30	4177.45
463.51	4194.73
463.72	4233.89
463.94	4227.01
464.15	4251.75
464.36	4192.77
464.57	4244.62
464.78	4307.45
464.99	4239.87
465.20	4225.86
465.42	4325.23
465.63	4315.89
465.84	4223.32
466.05	4305.90
466.26	4312.28
466.47	4278.29
466.68	4234.71
466.90	4295.66
467.11	4327.77
467.32	4327.93
467.53	4296.97
467.74	4301.80
467.95	4330.80
468.16	4322.03
468.37	4364.96
468.59	4325.06
468.80	4379.54
469.01	4387.73
469.22	4265.10
469.43	4376.59
469.64	4492.18
469.85	4481.69
470.06	4401.25
470.28	4420.01
470.49	4409.60
470.70	4411.82
470.91	4442.62
471.12	4433.20
471.33	4447.12
471.54	4451.71
471.75	4437.37
471.96	4526.83
472.17	4485.38
472.39	4542.31
472.60	4429.59
472.81	4537.48
473.02	4490.54
473.23	4517.82
473.44	4608.91
473.65	4601.87
473.86	4584.34
474.07	4583.03
474.28	4630.46
474.49	4607.77
474.71	4581.96
474.92	4624.56
475.13	4599.57
475.34	4678.95
475.55	4590.40
475.76	4721.14
475.97	4717.78
476.18	4685.18
476.39	4717.29
476.60	4729.25
476.81	4723.84
477.02	4723.84
477.23	4723.52
477.44	4743.26
477.65	4759.64
477.87	4814.94
478.08	4731.46
478.29	4881.78
478.50	4787.00
478.71	4803.22
478.92	4900.30
479.13	4805.35
479.34	4857.04
479.55	4840.91
479.76	4894.97
479.97	4847.95
480.18	4874.90
480.39	4935.44
480.60	4934.79
480.81	4963.70
481.02	4879.98
481.23	4958.38
481.44	4966.24
481.65	5079.95
481.86	5051.60
482.07	5046.93
482.28	5089.04
482.49	5074.38
482.71	5074.05
482.92	5081.99
483.13	5109.68
483.34	5180.71
483.55	5164.16
483.76	5138.93
483.97	5185.87
484.18	5192.75
484.39	5145.81
484.60	5189.14
484.81	5230.43
485.02	5288.02
485.23	5229.69
485.44	5312.92
485.65	5301.21
485.86	5270.49
486.07	5373.13
486.28	5333.48
486.49	5402.54
486.70	5485.53
486.91	5387.39
487.12	5428.59
487.33	5475.04
487.54	5506.58
487.75	5516.49
487.96	5556.38
488.17	5440.80
488.38	5535.00
488.59	5510.26
488.80	5592.18
489.01	5600.78
489.22	5725.79
489.43	5725.96
489.64	5635.35
489.85	5690.49
490.06	5722.76
490.26	5710.64
490.47	5766.59
490.68	5837.28
490.89	5918.96
491.10	5874.56
491.31	5899.62
491.52	6011.69
491.73	5927.80
491.94	5928.79
492.15	6024.06
492.36	6085.83
492.57	6043.23
492.78	6045.36
492.99	6145.87
493.20	6205.75
493.41	6267.28
493.62	6191.01
493.83	6236.88
494.04	6283.09
494.25	6332.16
494.46	6314.87
494.67	6320.11
494.88	6374.34
495.08	6469.37
495.29	6499.27
495.50	6589.63
495.71	6598.23
495.92	6627.96
496.13	6576.60
496.34	6653.28
496.55	6749.45
496.76	6730.85
496.97	6732.98
497.18	6837.35
497.39	6834.97
497.60	7037.56
497.81	6926.72
498.02	7065.41
498.22	6952.20
498.43	7078.60
498.64	7111.28
498.85	7185.18
499.06	7175.59
499.27	7324.36
499.48	7250.87
499.69	7344.18
499.90	7436.99
500.11	7461.98
500.32	7608.20
500.52	7528.58
500.73	7649.16
500.94	7771.30
501.15	7797.76
501.36	7754.18
501.57	7891.81
501.78	7960.62
501.99	7938.01
502.20	8014.28
502.41	8112.33
502.61	8182.13
502.82	8275.92
503.03	8242.34
503.24	8477.61
503.45	8377.50
503.66	8463.52
503.87	8620.23
504.08	8680.93
504.28	8739.75
504.49	8885.97
504.70	8869.92
504.91	8926.11
505.12	8972.40
505.33	9169.08
505.54	9147.46
505.75	9236.01
505.95	9353.16
506.16	9349.31
506.37	9362.82
506.58	9570.24
506.79	9643.72
507.00	9748.50
507.21	9727.85
507.41	9835.82
507.62	9958.13
507.83	10066.09
508.04	10091.41
508.25	10196.75
508.46	10181.76
508.67	10374.85
508.87	10417.94
509.08	10566.21
509.29	10572.02
509.50	10710.79
509.71	10727.51
509.92	10896.50
510.12	11002.51
510.33	11069.35
510.54	11098.60
510.75	11281.03
510.96	11514.34
511.17	11614.44
511.37	11615.91
511.58	11774.51
511.79	11761.07
512.00	11893.87
512.21	12087.68
512.42	12219.90
512.62	12257.83
512.83	12378.17
513.04	12416.92
513.25	12718.87
513.46	12535.86
513.66	12875.58
513.87	12899.66
514.08	13163.93
514.29	13214.07
514.50	13245.85
514.71	13454.42
514.91	13474.57
515.12	13587.94
515.33	13822.64
515.54	13864.58
515.75	14173.99
515.95	14103.30
516.16	14218.80
516.37	14457.51
516.58	14520.34
516.78	14666.81
516.99	14826.06
517.20	14849.49
517.41	15065.19
517.62	15064.94
517.82	15211.98
518.03	15396.38
518.24	15704.89
518.45	15618.71
518.66	15826.78
518.86	15843.91
519.07	16114.40
519.28	16043.30
519.49	16380.64
519.69	16409.31
519.90	16613.53
520.11	16739.03
520.32	16756.81
520.52	16976.35
520.73	16907.54
520.94	17272.49
521.15	17327.86
521.36	17278.71
521.56	17733.53
521.77	17565.35
521.98	17836.42
522.19	17808.48
522.39	18136.73
522.60	18181.46
522.81	18224.96
523.02	18273.37
523.22	18562.95
523.43	18752.76
523.64	18799.78
523.84	18921.18
524.05	19180.13
524.26	19177.34
524.47	19138.60
524.67	19354.04
524.88	19596.11
525.09	19717.60
525.30	19665.33
525.50	19806.56
525.71	20002.51
525.92	20043.14
526.13	20309.46
526.33	20240.08
526.54	20314.05
526.75	20453.72
526.95	20803.51
527.16	20486.24
527.37	21018.22
527.58	21077.04
527.78	21036.00
527.99	21257.51
528.20	21342.78
528.40	21361.22
528.61	21448.05
528.82	21602.88
529.03	21739.43
529.23	21846.99
529.44	21962.91
529.65	22070.55
529.85	22197.20
530.06	22188.92
530.27	22223.57
530.47	22160.66
530.68	22642.75
530.89	22396.42
531.09	22882.94
531.30	22757.27
531.51	22739.17
531.72	23049.81
531.92	22994.18
532.13	23096.25
532.34	23155.40
532.54	23230.60
532.75	23308.34
532.96	23409.43
533.16	23487.58
533.37	23750.46
533.58	23631.51
533.78	23885.71
533.99	24049.62
534.20	23800.18
534.40	23999.00
534.61	24161.69
534.82	24163.90
535.02	24341.01
535.23	24369.85
535.44	24520.58
535.64	24479.21
535.85	24653.94
536.06	24650.17
536.26	24600.61
536.47	24790.91
536.68	24994.15
536.88	24762.15
537.09	25123.01
537.29	24924.03
537.50	25322.31
537.71	25054.60
537.91	25359.67
538.12	25406.04
538.33	25243.59
538.53	25462.31
538.74	25565.29
538.95	25630.49
539.15	25535.55
539.36	25727.07
539.56	25933.59
539.77	25769.10
539.98	25878.46
540.18	25979.63
540.39	25845.37
540.60	26069.66
540.80	26168.13
541.01	26223.99
541.21	26169.35
541.42	26380.30
541.63	26332.78
541.83	26545.28
542.04	26540.20
542.25	26675.78
542.45	26612.13
542.66	26710.92
542.86	26865.17
543.07	26534.06
543.28	26941.11
543.48	26870.74
543.69	27018.28
543.89	27012.95
544.10	27308.11
544.31	27211.20
544.51	27068.25
544.72	27392.48
544.92	27193.99
545.13	27507.50
545.33	27442.70
545.54	27437.37
545.75	27579.34
545.95	27418.37
546.16	27488.33
546.36	28038.90
546.57	27464.74
546.78	26940.37
546.98	27363.16
547.19	27084.47
547.39	27637.91
547.60	28001.06
547.80	28274.26
548.01	28276.39
548.22	28100.34
548.42	28227.15
548.63	28362.65
548.83	28284.00
549.04	28515.51
549.24	28337.66
549.45	28501.99
549.65	28636.99
549.86	28258.77
550.07	28524.03
550.27	28760.44
550.48	28786.99
550.68	28744.96
550.89	28691.88
551.09	28936.16
551.30	28771.26
551.50	29043.39
551.71	28904.87
551.91	28899.71
552.12	29055.68
552.33	29219.60
552.53	29018.90
552.74	29154.56
552.94	29475.27
553.15	29145.13
553.35	29377.21
553.56	29134.40
553.76	29412.85
553.97	29144.64
554.17	29316.18
554.38	29701.53
554.58	29301.27
554.79	29556.86
554.99	29317.57
555.20	29345.84
555.40	29544.08
555.61	29450.36
555.81	29318.97
556.02	29638.45
556.22	29658.19
556.43	29449.46
556.63	29637.22
556.84	29389.99
557.04	29785.25
557.25	29437.58
557.45	29558.17
557.66	29522.78
557.86	29490.91
558.07	29774.27
558.27	29554.65
558.48	29582.09
558.68	29500.50
558.89	29601.18
559.09	29649.18
559.30	29496.32
559.50	29525.89
559.71	29411.78
559.91	29736.01
560.12	29544.90
560.32	29562.18
560.53	29612.81
560.73	29585.04
560.94	29735.61
561.14	29342.89
561.35	29641.15
561.55	29553.09
561.76	29507.22
561.96	29283.58
562.17	29542.52
562.37	29549.16
562.57	29386.22
562.78	29289.48
562.98	29488.54
563.19	29524.83
563.39	29382.13
563.60	29537.20
563.80	29159.06
564.01	29581.27
564.21	29261.71
564.42	29148.82
564.62	29198.30
564.82	29366.56
565.03	29019.55
565.23	29067.07
565.44	29239.34
565.64	29046.18
565.85	29132.03
566.05	29017.10
566.25	29135.88
566.46	28881.19
566.66	29015.38
566.87	28926.00
567.07	28807.30
567.28	28761.76
567.48	28944.52
567.68	28539.35
567.89	28914.45
568.09	28577.03
568.30	28512.72
568.50	28674.27
568.71	28533.69
568.91	28556.14
569.11	28346.75
569.32	28350.93
569.52	28493.80
569.73	28028.34
569.93	28315.13
570.13	28177.84
570.34	28011.05
570.54	28178.33
570.75	27999.42
570.95	27871.05
571.15	27774.63
571.36	28002.78
571.56	27716.72
571.77	27753.74
571.97	27449.83
572.17	27782.33
572.38	27664.94
572.58	27811.74
572.79	27566.72
572.99	27698.70
573.19	27494.96
573.40	27461.46
573.60	27384.62
573.81	27372.41
574.01	27408.78
574.21	27268.87
574.42	27201.53
574.62	27087.83
574.82	27209.23
575.03	26984.86
575.23	27277.31
575.43	26853.21
575.64	26935.70
575.84	27011.48
576.05	26807.42
576.25	26902.20
576.45	26778.75
576.66	26876.31
576.86	26632.77
577.06	26915.39
577.27	26716.65
577.47	26801.03
577.67	26706.91
577.88	26346.13
578.08	26650.46
578.28	26636.37
578.49	26630.72
578.69	26490.64
578.89	26303.95
579.10	26445.01
579.30	26680.61
579.50	26407.90
579.71	26293.22
579.91	26380.46
580.11	26276.59
580.32	26226.37
580.52	26158.38
580.72	26412.65
580.93	26018.13
581.13	26161.65
581.33	26223.26
581.54	26013.46
581.74	26030.42
581.94	26124.87
582.15	26175.09
582.35	26052.70
582.55	26047.05
582.76	25813.66
582.96	25971.52
583.16	25863.63
583.37	25966.28
583.57	25790.40
583.77	25998.80
583.97	25604.77
584.18	26032.71
584.38	25892.22
584.58	25666.21
584.79	25799.16
584.99	25820.22
585.19	25629.84
585.40	25635.33
585.60	25808.34
585.80	25506.22
586.00	25693.08
586.21	25642.70
586.41	25651.46
586.61	25686.69
586.82	25622.06
587.02	25490.49
587.22	25628.94
587.42	25414.23
587.63	25666.37
587.83	25313.47
588.03	25483.69
588.23	25307.00
588.44	25476.49
588.64	25383.18
588.84	25373.10
589.05	25497.54
589.25	25558.73
589.45	25537.92
589.65	25445.11
589.86	25482.14
590.06	25351.81
590.26	25264.32
590.46	25530.22
590.67	25193.46
590.87	25500.73
591.07	25515.72
591.27	25326.98
591.48	25519.74
591.68	25221.39
591.88	25631.64
592.08	25229.09
592.29	25471.73
592.49	25357.29
592.69	25411.77
592.89	25297.98
593.10	25414.23
593.30	25219.92
593.50	25582.82
593.70	25170.60
593.90	25407.59
594.11	25441.51
594.31	25341.97
594.51	25498.19
594.71	25473.70
594.92	25491.89
595.12	25354.92
595.32	25399.40
595.52	25479.43
595.72	25136.11
595.93	25534.57
596.13	25480.09
596.33	25218.61
596.53	25539.64
596.73	25564.71
596.94	25485.50
597.14	25493.44
597.34	25367.53
597.54	25521.54
597.74	25359.59
597.95	25389.82
598.15	25386.29
598.35	25473.54
598.55	25540.55
598.75	25537.68
598.96	25673.17
599.16	25455.19
599.36	25451.83
599.56	25391.45
599.76	25348.53
599.97	25648.92
600.17	25464.36
600.37	25506.55
600.57	25257.84
600.77	25585.93
600.97	25413.33
601.18	25597.07
601.38	25494.10
601.58	25541.94
601.78	25374.91
601.98	25403.17
602.18	25500.65
602.39	25589.94
602.59	25513.19
602.79	25374.09
602.99	25377.45
603.19	25486.23
603.39	25357.05
603.60	25347.79
603.80	25376.63
604.00	25422.26
604.20	25311.91
604.40	25375.48
604.60	25219.83
604.80	25181.09
605.01	25345.99
605.21	25182.81
605.41	25136.28
605.61	24971.21
605.81	25137.18
606.01	25224.59
606.21	24985.55
606.42	25133.98
606.62	24937.05
606.82	25128.17
607.02	24929.92
607.22	24902.56
607.42	25080.74
607.62	24649.60
607.82	24822.04
608.03	24792.87
608.23	24667.70
608.43	24551.38
608.63	24772.89
608.83	24573.00
609.03	24601.59
609.23	24564.40
609.43	24624.12
609.63	24433.41
609.84	24356.82
610.04	24531.63
610.24	24407.77
610.44	24399.17
610.64	24149.24
610.84	24172.67
611.04	24325.45
611.24	24136.29
611.44	23903.97
611.64	24120.89
611.85	24008.01
612.05	23989.25
612.25	23923.31
612.45	23834.42
612.65	23900.20
612.85	23843.60
613.05	23733.17
613.25	23896.35
613.45	23689.18
613.65	23777.49
613.85	23541.65
614.05	23732.11
614.25	23663.54
614.46	23567.12
614.66	23477.67
614.86	23356.76
615.06	23320.96
615.26	23468.25
615.46	23156.30
615.66	23354.71
615.86	23338.00
616.06	23066.76
616.26	23106.17
616.46	23299.90
616.66	23000.33
616.86	23116.24
617.06	23026.79
617.26	23122.14
617.46	23053.74
617.66	22859.18
617.86	22849.68
618.07	22798.07
618.27	22875.65
618.47	22806.02
618.67	22858.69
618.87	22847.22
619.07	22700.34
619.27	22675.68
619.47	22634.72
619.67	22796.92
619.87	22576.56
620.07	22671.83
620.27	22696.90
620.47	22472.03
620.67	22639.07
620.87	22545.76
621.07	22577.71
621.27	22570.99
621.47	22377.25
621.67	22540.52
621.87	22406.50
622.07	22528.97
622.27	22498.66
622.47	22353.09
622.67	22391.75
622.87	22352.27
623.07	22447.05
623.27	22539.37
623.47	22239.96
623.67	22265.52
623.87	22519.96
624.07	22422.06
624.27	22229.64
624.47	22417.31
624.67	22318.35
624.87	22328.92
625.07	22238.65
625.27	22414.69
625.47	22351.86
625.67	22193.67
625.87	22400.11
626.07	22285.83
626.27	22436.23
626.47	22356.77
626.67	22334.41
626.87	22213.74
627.07	22449.42
627.27	22293.61
627.47	22469.90
627.67	22385.45
627.87	22333.59
628.07	22469.99
628.27	22378.48
628.47	22342.60
628.67	22464.41
628.86	22438.12
629.06	22368.08
629.26	22333.67
629.46	22495.13
629.66	22520.45
629.86	22235.70
630.06	22472.69
630.26	22363.49
630.46	22515.37
630.66	22396.34
630.86	22400.11
631.06	22462.69
631.26	22345.63
631.46	22620.31
631.66	22476.87
631.86	22354.73
632.06	22475.31
632.26	22379.06
632.45	22429.44
632.65	22369.14
632.85	22500.62
633.05	22347.76
633.25	22485.55
633.45	22179.91
633.65	22292.39
633.85	22499.97
634.05	22103.32
634.25	22295.83
634.45	22164.76
634.65	22307.95
634.84	22121.18
635.04	22156.24
635.24	21917.12
635.44	22118.96
635.64	21983.96
635.84	21969.13
636.04	21955.62
636.24	21842.24
636.44	21873.29
636.64	21612.79
636.84	21838.06
637.03	21575.43
637.23	21633.43
637.43	21542.42
637.63	21458.04
637.83	21516.37
638.03	21531.20
638.23	21341.15
638.43	21295.68
638.62	21396.03
638.82	21004.30
639.02	21254.15
639.22	21041.81
639.42	21062.29
639.62	20889.85
639.82	20779.26
640.02	20836.12
640.21	20832.18
640.41	20474.12
640.61	20607.97
640.81	20477.89
641.01	20425.87
641.21	20291.85
641.41	20453.31
641.61	20112.69
641.80	20029.05
642.00	20224.02
642.20	19998.09
642.40	19675.49
642.60	19861.28
642.80	19829.25
642.99	19582.35
643.19	19655.75
643.39	19399.92
643.59	19453.25
643.79	19322.67
643.99	19347.49
644.19	19322.09
644.38	19037.02
644.58	19099.36
644.78	18892.68
644.98	18843.36
645.18	18753.41
645.38	18901.36
645.57	18565.00
645.77	18632.58
645.97	18410.99
646.17	18471.04
646.37	18383.14
646.56	18186.21
646.76	18230.20
646.96	18074.39
647.16	17977.48
647.36	18018.77
647.55	17837.56
647.75	17767.93
647.95	17744.42
648.15	17737.54
648.35	17632.52
648.55	17557.07
648.74	17526.27
648.94	17470.07
649.14	17478.84
649.34	17363.17
649.54	17290.02
649.73	17240.46
649.93	17193.27
650.13	17093.74
650.33	17068.10
650.52	17212.19
650.72	17125.85
650.92	16978.48
651.12	16939.32
651.32	16956.28
651.51	16978.97
651.71	16931.05
651.91	16786.38
652.11	16704.05
652.30	16633.68
652.50	16741.16
652.70	16742.64
652.90	16609.44
653.10	16687.91
653.29	16541.12
653.49	16532.76
653.69	16486.72
653.89	16381.46
654.08	16380.64
654.28	16397.18
654.48	16392.27
654.68	16364.09
654.87	16238.34
655.07	16181.08
655.27	16257.76
655.47	16021.42
655.66	16009.55
655.86	15868.97
656.06	15997.18
656.26	15773.78
656.45	15785.91
656.65	15698.75
656.85	15612.24
657.04	15537.28
657.24	15419.89
657.44	15397.78
657.64	15470.19
657.83	15132.20
658.03	15247.37
658.23	15134.08
658.43	15008.25
658.62	14952.55
658.82	14814.84
659.02	14672.96
659.21	14554.91
659.41	14606.93
659.61	14476.19
659.81	14309.57
660.00	14206.84
660.20	14236.99
660.40	13999.26
660.59	13987.63
660.79	13863.27
660.99	13864.34
661.19	13787.74
661.38	13716.56
661.58	13409.61
661.78	13365.54
661.97	13200.31
662.17	13289.68
662.37	13043.92
662.56	13034.99
662.76	12929.48
662.96	12908.67
663.15	12812.83
663.35	12665.54
663.55	12497.69
663.74	12427.89
663.94	12405.12
664.14	12198.93
664.33	12136.10
664.53	12058.60
664.73	12103.50
664.93	11908.86
665.12	11847.25
665.32	11745.10
665.52	11666.70
665.71	11623.21
665.91	11545.55
666.10	11427.01
666.30	11417.51
666.50	11358.69
666.69	11196.82
666.89	11166.02
667.09	11161.84
667.28	11031.75
667.48	10967.12
667.68	10840.96
667.87	10838.75
668.07	10680.16
668.27	10721.61
668.46	10607.41
668.66	10567.03
668.86	10589.47
669.05	10432.11
669.25	10433.34
669.44	10346.83
669.64	10317.09
669.84	10244.10
670.03	10244.51
670.23	10140.56
670.43	10132.86
670.62	10016.94
670.82	9935.84
671.01	10002.12
671.21	9908.40
671.41	9842.46
671.60	9904.06
671.80	9896.28
672.00	9793.63
672.19	9842.87
672.39	9736.45
672.58	9725.15
672.78	9651.34
672.98	9733.18
673.17	9653.72
673.37	9517.32
673.56	9596.62
673.76	9536.65
673.96	9516.17
674.15	9483.24
674.35	9492.17
674.54	9468.41
674.74	9458.18
674.94	9355.78
675.13	9417.13
675.33	9267.14
675.52	9347.34
675.72	9265.99
675.91	9212.99
676.11	9247.32
676.31	9224.38
676.50	9190.05
676.70	9184.98
676.89	9144.92
677.09	9195.54
677.28	9169.66
677.48	9092.82
677.68	9156.55
677.87	9123.86
678.07	9125.01
678.26	9138.69
678.46	9119.69
678.65	9145.00
678.85	9110.43
679.04	9145.57
679.24	9123.54
679.44	9165.89
679.63	9370.85
679.83	9258.05
680.02	9275.41
680.22	9312.28
680.41	9390.92
680.61	9461.12
680.80	9443.76
681.00	9523.63
681.19	9602.68
681.39	9709.75
681.59	9691.23
681.78	9754.23
681.98	9908.73
682.17	9860.81
682.37	10056.43
682.56	10102.55
682.76	10221.25
682.95	10305.54
683.15	10400.65
683.34	10534.59
683.54	10656.81
683.73	10802.22
683.93	10948.60
684.12	11085.74
684.32	11288.16
684.51	11383.02
684.71	11637.05
684.90	11775.41
685.10	11901.07
685.29	12177.22
685.49	12398.57
685.68	12493.67
685.88	12749.18
686.07	12897.62
686.27	13112.49
686.46	13475.14
686.66	13605.97
686.85	13970.26
687.05	14093.14
687.24	14383.05
687.44	14716.62
687.63	14953.37
687.83	15017.67
688.02	15382.05
688.22	15770.83
688.41	15983.66
688.61	16373.26
688.80	16603.37
689.00	16874.44
689.19	17111.02
689.39	17604.34
689.58	17820.93
689.77	18191.78
689.97	18510.20
690.16	18881.45
690.36	19016.62
690.55	19419.66
690.75	19977.69
690.94	20077.38
691.14	20538.75
691.33	20798.19
691.53	21294.94
691.72	21582.40
691.91	21894.51
692.11	22176.80
692.30	22691.74
692.50	22958.96
692.69	23275.08
692.89	23616.85
693.08	23988.19
693.28	24381.31
693.47	24812.37
693.66	25121.45
693.86	25433.15
694.05	25693.08
694.25	26169.11
694.44	26516.28
694.64	26786.53
694.83	27189.32
695.02	27560.58
695.22	27981.72
695.41	28164.08
695.61	28502.81
695.80	28841.71
695.99	29365.09
696.19	29561.45
696.38	29870.61
696.58	30067.79
696.77	30714.29
696.96	31000.59
697.16	31214.57
697.35	31611.79
697.55	31862.95
697.74	32072.17
697.93	32742.76
698.13	32668.38
698.32	33252.38
698.52	33404.42
698.71	33505.59
698.90	34362.79
699.10	34312.82
699.29	34615.59
699.49	35176.57
699.68	35125.70
699.87	35474.10
700.07	36000.67
700.26	36106.92
700.45	36453.76
700.65	36481.53
700.84	37261.56
701.04	37139.42
701.23	37665.59
701.42	37927.32
701.62	38133.18
701.81	38454.71
702.00	38573.98
702.20	38659.42
702.39	39106.37
702.58	39491.31
702.78	39539.15
702.97	39696.35
703.17	40071.79
703.36	40387.66
703.55	40376.61
703.75	40700.18
703.94	41012.54
704.13	41022.45
704.33	41313.26
704.52	41891.12
704.71	41938.39
704.91	42124.75
705.10	42111.40
705.29	42577.27
705.49	42917.72
705.68	43022.66
705.87	43254.98
706.07	43152.91
706.26	43680.06
706.45	43590.44
706.65	43604.94
706.84	44363.59
707.03	44901.71
707.23	44377.84
707.42	44432.57
707.61	45050.40
707.80	44904.58
708.00	45226.11
708.19	45478.18
708.38	46111.08
708.58	45707.39
708.77	46463.74
708.96	46098.06
709.16	46242.32
709.35	47119.58
709.54	46963.61
709.74	46955.66
709.93	46897.34
710.12	47673.19
710.31	48076.07
710.51	47769.36
710.70	48010.20
710.89	48388.26
711.09	47969.82
711.28	48141.77
711.47	48591.83
711.66	48739.69
711.86	48834.47
712.05	49106.03
712.24	49552.24
712.43	49377.67
712.63	49320.82
712.82	49871.73
713.01	49928.09
713.21	49681.67
713.40	49945.21
713.59	50612.84
713.78	50146.07
713.98	50716.72
714.17	50609.81
714.36	50913.16
714.55	50642.42
714.75	51021.86
714.94	51174.48
715.13	51698.51
715.32	51069.87
715.52	51743.65
715.71	51551.55
715.90	51842.44
716.09	51902.25
716.29	52498.53
716.48	52404.49
716.67	51884.47
716.86	52477.15
717.06	52597.41
717.25	52808.68
717.44	52972.02
717.63	53250.71
717.82	52737.08
718.02	53240.88
718.21	53385.30
718.40	53628.85
718.59	53704.79
718.79	53518.26
718.98	53503.59
719.17	54025.09
719.36	54292.63
719.55	53996.09
719.75	54097.18
719.94	54158.62
720.13	54588.28
720.32	54564.44
720.51	54519.06
720.71	54572.71
720.90	54248.81
721.09	54731.31
721.28	54576.32
721.47	55199.48
721.67	55002.46
721.86	55317.85
722.05	55358.07
722.24	55018.11
722.43	55519.04
722.63	55282.87
722.82	55517.57
723.01	55753.82
723.20	55420.25
723.39	55535.34
723.58	56081.66
723.78	55460.30
723.97	56255.24
724.16	55739.98
724.35	56058.72
724.54	55792.73
724.73	56219.69
724.93	56040.29
725.12	56417.03
725.31	55852.45
725.50	56330.94
725.69	56790.58
725.88	56323.24
726.08	56098.78
726.27	56814.09
726.46	56083.79
726.65	57016.76
726.84	56230.50
727.03	56618.72
727.23	56908.46
727.42	56526.15
727.61	56821.88
727.80	56469.05
727.99	56960.97
728.18	57001.69
728.37	56801.72
728.56	56953.11
728.76	56723.33
728.95	57163.23
729.14	57159.05
729.33	57108.76
729.52	57223.28
729.71	57349.35
729.90	57408.00
730.09	57092.86
730.29	57354.76
730.48	56864.80
730.67	57601.74
730.86	57126.20
731.05	57591.17
731.24	57417.83
731.43	57614.77
731.62	57320.93
731.81	57296.76
732.01	57905.58
732.20	57194.20
732.39	57854.38
732.58	57595.84
732.77	56871.76
732.96	57774.51
733.15	57950.22
733.34	57554.31
733.53	57689.07
733.72	57823.58
733.92	57832.10
734.11	57527.85
734.30	57717.66
734.49	58082.03
734.68	57723.15
734.87	57770.90
735.06	57869.21
735.25	57974.80
735.44	57625.66
735.63	57806.95
735.82	57977.75
736.01	57571.19
736.20	57615.10
736.40	58116.68
736.59	57907.79
736.78	58169.60
736.97	57458.14
737.16	57740.51
737.35	57857.41
737.54	57975.54
737.73	57705.45
737.92	57900.66
738.11	58020.18
738.30	57900.99
738.49	57770.33
738.68	57598.63
738.87	58045.33
739.06	57508.11
739.25	57771.07
739.44	57795.48
739.63	57588.64
739.82	57427.83
740.01	57733.22
740.20	57449.70
740.39	57650.32
740.59	57765.33
740.78	57806.70
740.97	57584.54
741.16	57395.47
741.35	57703.73
741.54	57667.44
741.73	57689.81
741.92	57332.97
742.11	57416.52
742.30	57538.99
742.49	56980.31
742.68	57641.56
742.87	57495.49
743.06	57052.97
743.25	57442.82
743.44	57212.30
743.63	57542.68
743.82	57185.60
744.01	57031.83
744.20	56909.28
744.39	57238.11
744.58	57270.38
744.77	57092.78
744.96	56625.52
745.15	57176.26
745.34	56811.06
745.53	57163.48
745.72	56683.19
745.91	56812.54
746.10	56426.95
746.29	56907.24
746.48	56859.89
746.67	56799.10
746.86	56809.59
747.04	56945.41
747.23	56536.47
747.42	57020.04
747.61	56459.80
747.80	57321.66
747.99	56329.13
748.18	56933.45
748.37	56605.20
748.56	56324.63
748.75	56487.07
748.94	56436.28
749.13	56639.93
749.32	56268.11
749.51	56642.97
749.70	56610.03
749.89	56288.26
750.08	56496.74
750.27	56003.34
750.46	56398.68
750.65	56631.74
750.84	56021.69
751.02	56408.43
751.21	56019.48
751.40	56352.40
751.59	56272.69
751.78	56169.39
751.97	56066.26
752.16	55913.97
752.35	56342.90
752.54	55742.76
752.73	56264.66
752.92	55792.48
753.11	55741.94
753.30	55840.65
753.49	56110.33
753.67	55816.08
753.86	55456.62
754.05	55837.95
754.24	55513.80
754.43	55682.14
754.62	55641.02
754.81	55349.39
755.00	55613.16
755.19	55449.57
755.38	55097.90
755.56	55549.51
755.75	55796.42
755.94	55286.96
756.13	55334.23
756.32	55415.17
756.51	55089.05
756.70	55453.01
756.89	55180.88
757.08	55211.35
757.26	55105.92
757.45	55130.34
757.64	54714.02
757.83	55298.02
758.02	54855.91
758.21	54720.82
758.40	54978.62
758.59	54932.50
758.77	54806.27
758.96	54902.19
759.15	54954.21
759.34	54458.03
759.53	54740.07
759.72	54707.72
759.91	54133.22
760.09	54626.86
760.28	54926.03
760.47	54163.53
760.66	54750.23
760.85	54235.62
761.04	54759.24
761.23	54441.15
761.41	54469.66
761.60	54591.06
761.79	54288.13
761.98	54075.63
762.17	54380.94
762.36	54000.76
762.54	54452.62
762.73	54203.26
762.92	53848.55
763.11	54140.02
763.30	54304.51
763.49	53996.99
763.67	54038.11
763.86	54022.38
764.05	54171.31
764.24	53984.46
764.43	54490.30
764.61	53672.51
764.80	53754.43
764.99	54352.60
765.18	53721.99
765.37	53947.02
765.55	54028.77
765.74	53808.58
765.93	53463.29
766.12	53849.45
766.31	53729.61
766.49	53731.98
766.68	53838.97
766.87	53658.50
767.06	53699.38
767.25	53637.61
767.43	53722.97
767.62	53500.32
767.81	53714.62
768.00	53504.25
768.19	53236.54
768.37	53367.85
768.56	53454.77
768.75	53664.40
768.94	53555.86
769.12	53234.33
769.31	53295.68
769.50	53264.64
769.69	53375.23
769.88	52789.18
770.06	53677.18
770.25	53137.50
770.44	53010.61
770.63	53349.09
770.81	53277.99
771.00	52907.06
771.19	53117.59
771.38	53014.05
771.56	53238.91
771.75	52521.22
771.94	53063.36
772.13	52859.71
772.31	52624.77
772.50	53073.93
772.69	52829.89
772.88	53284.95
773.06	52491.65
773.25	52840.95
773.44	52882.08
773.62	52693.33
773.81	52850.70
774.00	52429.72
774.19	52591.02
774.37	52453.23
774.56	52764.77
774.75	52132.03
774.94	52623.70
775.12	52283.50
775.31	52646.07
775.50	52670.48
775.68	52447.09
775.87	52373.77
776.06	52161.76
776.25	52644.84
776.43	52071.00
776.62	52653.19
776.81	52087.87
776.99	52397.61
777.18	52247.78
777.37	51724.73
777.55	51947.30
777.74	52250.56
777.93	52058.46
778.12	52118.02
778.30	52011.28
778.49	51863.25
778.68	52138.01
778.86	51979.00
779.05	52224.43
779.24	52107.45
779.42	52003.58
779.61	51588.58
779.80	51814.18
779.98	51846.38
780.17	52141.28
780.36	51453.17
780.54	52072.96
780.73	51142.78
780.92	51815.33
781.10	51643.63
781.29	51475.86
781.48	51282.37
781.66	51481.27
781.85	51731.04
782.04	51345.36
782.22	51593.58
782.41	51224.70
782.60	51543.69
782.78	51480.69
782.97	51767.57
783.16	50973.53
783.34	51175.38
783.53	51236.25
783.71	51129.10
783.90	51137.94
784.09	51044.97
784.27	51127.70
784.46	51020.06
784.65	51225.76
784.83	50817.23
785.02	50812.97
785.20	51317.43
785.39	50383.31
785.58	51137.12
785.76	51043.57
785.95	50832.96
786.14	51056.93
786.32	51056.60
786.51	50881.78
786.69	51234.36
786.88	50934.29
787.07	50912.09
787.25	51027.35
787.44	51026.62
787.62	50999.99
787.81	51262.71
788.00	51248.78
788.18	50792.82
788.37	50906.36
788.55	51521.90
788.74	50849.18
788.93	51099.44
789.11	51464.14
789.30	51325.95
789.48	51073.31
789.67	51366.41
789.86	51208.80
790.04	51407.87
790.23	51247.80
790.41	51159.82
790.60	51528.86
790.78	51544.59
790.97	50987.79
791.16	51527.71
791.34	52122.69
791.53	51291.21
791.71	52109.42
791.90	51667.55
792.08	51764.46
792.27	51968.19
792.46	51828.35
792.64	52214.68
792.83	51898.15
793.01	52354.03
793.20	52225.91
793.38	52270.39
793.57	52266.70
793.75	52355.17
793.94	52609.20
794.12	52942.94
794.31	52402.93
794.50	52774.68
794.68	52949.58
794.87	52772.63
795.05	53180.01
795.24	52835.30
795.42	52735.28
795.61	53455.26
795.79	53511.38
795.98	52797.13
796.16	53324.44
796.35	53578.30
796.53	53081.47
796.72	53442.65
796.90	53613.12
797.09	53599.52
797.27	53557.25
797.46	53392.51
797.64	53646.13
797.83	53434.13
798.01	53489.01
798.20	53813.82
798.38	53406.52
798.57	53888.78
798.75	53716.99
798.94	53075.08
799.12	54347.52
799.31	53737.96
799.49	53732.31
799.68	53559.79
799.86	53693.73
800.05	53701.10
800.23	53744.02
800.42	53552.01
800.60	54168.20
800.79	53438.63
800.97	53791.21
801.16	54314.75
801.34	53714.86
801.53	53614.43
801.71	53964.55
801.90	53520.06
802.08	54208.26
802.27	53847.90
802.45	53622.78
802.64	53899.10
802.82	54119.62
803.00	53323.70
803.19	53776.38
803.37	54231.03
803.56	53752.54
803.74	53714.62
803.93	54018.86
804.11	53715.35
804.30	53514.65
804.48	53951.69
804.67	54091.61
804.85	53672.84
805.03	54162.88
805.22	53581.83
805.40	53394.64
805.59	53836.35
805.77	53917.53
805.96	53609.92
806.14	53629.67
806.32	53790.14
806.51	54200.39
806.69	53654.65
806.88	53517.11
807.06	53492.21
807.25	53545.86
807.43	53403.49
807.61	53547.75
807.80	53258.49
807.98	53507.03
808.17	53104.98
808.35	53040.51
808.53	53510.31
808.72	53205.00
808.90	53287.90
809.09	53222.78
809.27	53357.70
809.45	52903.13
809.64	53440.52
809.82	53060.74
810.01	53104.49
810.19	53196.81
810.37	52971.86
810.56	52870.03
810.74	53165.02
810.93	52741.34
811.11	52942.86
811.29	52774.52
811.48	52978.90
811.66	52814.66
811.84	52727.49
812.03	52544.98
812.21	52647.62
812.40	52782.13
812.58	53017.32
812.76	52432.67
812.95	52884.45
813.13	52194.04
813.31	52660.81
813.50	52629.77
813.68	52419.32
813.86	52745.44
814.05	52753.55
814.23	52052.73
814.42	52497.71
814.60	52243.36
814.78	52343.13
814.97	52311.18
815.15	52076.49
815.33	52368.94
815.52	52007.43
815.70	52172.99
815.88	52173.89
816.07	51733.57
816.25	51984.74
816.43	52090.58
816.62	51561.30
816.80	51847.20
816.98	51705.56
817.17	51647.81
817.35	51617.91
817.53	51664.60
817.72	51926.98
817.90	51235.18
818.08	51412.29
818.26	51786.17
818.45	51270.49
818.63	51606.03
818.81	51667.22
819.00	51031.20
819.18	51489.95
819.36	51474.06
819.55	51411.72
819.73	51069.13
819.91	51403.77
820.09	51056.27
820.28	51470.21
820.46	50880.15
820.64	51626.10
820.83	50924.22
821.01	51033.25
821.19	50905.46
821.38	51071.84
821.56	50760.30
821.74	50937.41
821.92	50639.88
822.11	51118.12
822.29	50435.82
822.47	50421.40
822.65	50603.75
822.84	50674.28
823.02	50096.02
823.20	50777.75
823.39	50202.76
823.57	50368.32
823.75	50345.22
823.93	50066.61
824.12	50314.74
824.30	50009.10
824.48	50034.99
824.66	50282.22
824.85	49289.77
825.03	50004.60
825.21	50113.39
825.39	49941.77
825.58	49915.88
825.76	49740.25
825.94	49890.24
826.12	49599.02
826.31	49330.73
826.49	49613.52
826.67	49583.37
826.85	49350.39
827.03	49530.37
827.22	49731.40
827.40	49274.62
827.58	49269.87
827.76	49474.17
827.95	49152.56
828.13	49199.42
828.31	49181.48
828.49	49304.60
828.67	49065.32
828.86	48812.68
829.04	48958.82
829.22	48851.18
829.40	48774.67
829.58	48792.86
829.77	48881.16
829.95	48904.59
830.13	48870.27
830.31	48736.82
830.49	48897.79
830.68	49002.24
830.86	48558.81
831.04	48420.29
831.22	48685.05
831.40	48526.29
831.59	48765.90
831.77	48259.97
831.95	48778.52
832.13	48107.44
832.31	48512.37
832.50	48499.34
832.68	48097.20
832.86	48208.04
833.04	48559.39
833.22	47847.10
833.40	48617.96
833.59	47985.38
833.77	48463.46
833.95	47410.80
834.13	48769.59
834.31	48094.01
834.49	48224.83
834.67	48096.71
834.86	48218.61
835.04	47922.55
835.22	48048.46
835.40	47805.57
835.58	47746.59
835.76	47873.07
835.95	47745.77
836.13	47676.88
836.31	47392.86
836.49	47803.20
836.67	47816.71
836.85	47582.26
837.03	47502.96
837.21	47557.03
837.40	47302.02
837.58	46814.85
837.76	47235.33
837.94	47231.57
838.12	47551.13
838.30	47173.08
838.48	47199.70
838.66	47084.93
838.85	46970.00
839.03	46930.60
839.21	46915.44
839.39	46732.35
839.57	46953.86
839.75	46651.17
839.93	46731.86
840.11	46855.80
840.29	46644.70
840.47	46679.52
840.66	46751.44
840.84	46607.67
841.02	46429.34
841.20	46386.98
841.38	46438.35
841.56	46351.92
841.74	46947.23
841.92	46261.98
842.10	46247.72
842.28	46545.58
842.46	46178.34
842.65	46125.58
842.83	46378.38
843.01	46593.66
843.19	45935.20
843.37	46235.02
843.55	45983.78
843.73	46163.84
843.91	46119.11
844.09	45870.32
844.27	46387.56
844.45	45829.36
844.63	45733.27
844.81	45826.50
844.99	45772.43
845.17	45541.01
845.35	45891.78
845.54	45458.93
845.72	45495.30
845.90	45474.65
846.08	45512.91
846.26	45032.62
846.44	45619.49
846.62	45025.58
846.80	45114.21
846.98	45112.98
847.16	45102.50
847.34	45242.09
847.52	45143.38
847.70	44884.68
847.88	45179.09
848.06	44878.45
848.24	45008.70
848.42	44886.31
848.60	44613.69
848.78	44882.22
848.96	44731.00
849.14	44660.38
849.32	44949.72
849.50	44426.59
849.68	44901.31
849.86	44710.27
850.04	44400.21
850.22	44453.87
850.40	44089.00
850.58	44383.50
850.76	45193.92
850.94	43824.16
851.12	44515.22
851.30	44118.24
851.48	44530.95
851.66	44098.09
851.84	44017.98
852.02	43986.44
852.20	44317.72
852.38	43942.69
852.56	44170.59
852.74	44222.20
852.92	43922.54
853.10	43809.98
853.28	44195.98
853.46	43278.82
853.64	43919.51
853.82	43567.42
854.00	43679.90
854.18	43457.57
854.36	43373.85
854.54	43544.73
854.72	43199.69
854.90	43125.06
855.07	43320.93
855.25	43258.42
855.43	43279.97
855.61	43207.72
855.79	43013.24
855.97	43107.20
856.15	43067.55
856.33	42844.24
856.51	43153.00
856.69	42587.26
856.87	43035.03
857.05	42666.23
857.23	42912.15
857.41	42429.33
857.59	42603.24
857.77	42553.27
857.94	42490.44
858.12	42776.41
858.30	42464.96
858.48	42397.21
858.66	42224.69
858.84	42552.29
859.02	42103.94
859.20	41974.92
859.38	42591.93
859.56	42250.25
859.74	42133.35
859.92	42236.41
860.09	41958.37
860.27	42244.60
860.45	41780.45
860.63	41969.52
860.81	42190.20
860.99	41942.07
861.17	41474.81
861.35	40645.30
861.53	40554.61
861.70	40601.14
861.88	41489.39
862.06	41355.86
862.24	40617.94
862.42	40646.28
862.60	41345.29
862.78	41304.42
862.96	41389.61
863.14	41059.07
863.31	41170.89
863.49	40882.86
863.67	40893.84
863.85	40812.25
864.03	40940.29
864.21	40980.35
864.39	40910.22
864.56	40535.36
864.74	40744.26
864.92	40521.19
865.10	40445.01
865.28	40550.68
865.46	40912.76
865.64	39963.98
865.81	40540.77
865.99	39910.90
866.17	40369.31
866.35	40075.64
866.53	40094.39
866.71	40126.59
866.88	40154.28
867.06	39834.30
867.24	39990.93
867.42	39780.40
867.60	39991.50
867.78	39642.45
867.95	40016.57
868.13	39527.27
868.31	39903.44
868.49	39858.14
868.67	39590.84
868.84	39423.97
869.02	39744.93
869.20	38915.58
869.38	39441.26
869.56	39173.05
869.73	39040.10
869.91	39285.77
870.09	39260.87
870.27	38901.58
870.45	39075.41
870.62	38659.51
870.80	39062.46
870.98	38821.54
871.16	38807.21
871.34	38705.30
871.51	38771.08
871.69	38502.80
871.87	38701.94
872.05	38530.89
872.23	38525.57
872.40	38190.69
872.58	38496.41
872.76	38180.94
872.94	38178.56
873.11	38196.34
873.29	37944.36
873.47	38137.36
873.65	37908.07
873.83	37815.50
874.00	37849.41
874.18	37992.85
874.36	37892.17
874.54	37968.60
874.71	37664.93
874.89	37397.30
875.07	37693.68
875.25	37493.56
875.42	37562.70
875.60	37568.43
875.78	37798.70
875.96	37431.95
876.13	37805.18
876.31	37198.24
876.49	37276.39
876.66	37000.98
876.84	37721.95
877.02	37169.57
877.20	37309.89
877.37	37431.87
877.55	37287.20
877.73	37140.24
877.91	37130.25
878.08	37363.06
878.26	37297.93
878.44	37267.22
878.61	37355.85
878.79	37027.36
878.97	37157.69
879.15	37438.51
879.32	37368.63
879.50	37239.85
879.68	37643.22
879.85	37154.09
880.03	37510.76
880.21	37176.37
880.38	37513.63
880.56	37083.06
880.74	37532.96
880.92	37043.66
881.09	37331.44
881.27	37260.17
881.45	37325.62
881.62	37282.29
881.80	37153.59
881.98	37091.83
882.15	37473.98
882.33	37219.46
882.51	37373.30
882.68	37094.04
882.86	37572.61
883.04	37012.45
883.21	37129.35
883.39	37554.91
883.57	37158.10
883.74	37304.90
883.92	37461.69
884.10	37359.95
884.27	37316.20
884.45	37111.73
884.63	37621.92
884.80	37513.79
884.98	37535.34
885.16	37317.43
885.33	37414.91
885.51	37443.59
885.69	37497.24
885.86	37446.04
886.04	37669.35
886.21	37151.96
886.39	37567.45
886.57	37064.79
886.74	37716.46
886.92	37657.97
887.10	37649.12
887.27	37549.10
887.45	37612.01
887.62	37426.63
887.80	37557.78
887.98	37844.33
888.15	37752.58
888.33	37469.96
888.51	37934.61
888.68	37566.79
888.86	37794.28
889.03	37477.42
889.21	37672.22
889.39	37792.07
889.56	37731.04
889.74	37705.23
889.91	37746.69
890.09	37665.83
890.27	37757.33
890.44	37772.41
890.62	37713.67
890.79	37778.72
890.97	37952.38
891.14	37799.52
891.32	37924.53
891.50	37767.49
891.67	38012.92
891.85	37945.58
892.02	37788.71
892.20	38301.44
892.38	38011.28
892.55	37850.07
892.73	38122.45
892.90	37749.06
893.08	37946.49
893.25	37840.48
893.43	38229.19
893.60	37810.99
893.78	38124.49
893.96	37965.41
894.13	38053.55
894.31	38221.16
894.48	37884.80
894.66	37903.40
894.83	37965.16
895.01	37880.70
895.18	38013.74
895.36	37864.08
895.53	38091.81
895.71	37775.28
895.89	37868.33
896.06	37725.55
896.24	37781.91
896.41	37763.15
896.59	37923.88
896.76	37375.51
896.94	37658.46
897.11	37774.70
897.29	37826.23
897.46	37539.76
897.64	37669.76
897.81	37528.62
897.99	37220.52
898.16	37841.22
898.34	37575.31
898.51	37512.81
898.69	37297.20
898.86	37357.41
899.04	37424.01
899.21	37186.20
899.39	37319.81
899.56	37146.30
899.74	37561.22
899.91	37154.99
900.09	36984.92
900.26	37169.81
900.44	36943.96
900.61	36951.66
900.79	37449.32
900.96	37118.12
901.14	37022.85
901.31	36860.08
901.49	36882.69
901.66	36968.21
901.84	36908.90
902.01	36643.65
902.19	36773.65
902.36	36424.03
902.54	36546.99
902.71	36490.87
902.88	36698.94
903.06	36048.76
903.23	36669.70
903.41	36162.54
903.58	36059.49
903.76	35872.06
903.93	36067.35
904.11	36277.39
904.28	35963.97
904.45	35943.49
904.63	35852.72
904.80	35419.54
904.98	35732.55
905.15	35413.39
905.33	35678.40
905.50	35455.17
905.68	35537.01
905.85	35269.63
906.02	35229.57
906.20	35390.29
906.37	34856.92
906.55	34708.65
906.72	35129.05
906.90	34749.61
907.07	34488.20
907.24	34730.44
907.42	34437.91
907.59	34420.37
907.77	34267.43
907.94	34093.44
908.11	34260.06
908.29	34126.70
908.46	33976.95
908.64	33938.45
908.81	33905.60
908.98	33610.69
909.16	33919.93
909.33	33605.20
909.51	33476.18
909.68	33315.70
909.85	33350.11
910.03	33370.67
910.20	33051.92
910.37	32978.77
910.55	32917.33
910.72	32754.23
910.90	32580.48
911.07	32513.22
911.24	32343.41
911.42	32646.42
911.59	32208.32
911.76	32264.11
911.94	32014.75
912.11	32072.99
912.29	32109.36
912.46	31799.55
912.63	31986.90
912.81	31530.28
912.98	31885.40
913.15	31439.02
913.33	31706.00
913.50	31564.61
913.67	31386.51
913.85	31340.80
914.02	31317.70
914.19	31210.96
914.37	30942.68
914.54	31096.36
914.71	30899.92
914.89	30880.67
915.06	30879.35
915.23	30649.00
915.41	30562.25
915.58	30497.37
915.75	30382.60
915.93	30351.22
916.10	30147.82
916.27	30099.16
916.45	30024.12
916.62	29829.32
916.79	29979.80
916.97	29810.72
917.14	29652.05
917.31	29523.35
917.49	29569.15
917.66	29498.45
917.83	29334.12
918.00	29179.21
918.18	29136.86
918.35	29016.11
918.52	29114.33
918.70	28842.04
918.87	28786.82
919.04	28859.89
919.21	28683.44
919.39	28388.86
919.56	28566.87
919.73	28286.71
919.91	28384.93
920.08	28284.58
920.25	28025.96
920.42	28250.17
920.60	27956.82
920.77	27783.32
920.94	27959.69
921.11	27512.90
921.29	27733.35
921.46	27300.49
921.63	27619.40
921.81	27282.38
921.98	27315.32
922.15	27124.61
922.32	27272.72
922.50	27069.48
922.67	27028.19
922.84	26807.26
923.01	26649.97
923.19	26670.12
923.36	26681.67
923.53	26119.38
923.70	26483.84
923.87	26312.63
924.05	26340.56
924.22	26004.86
924.39	26204.42
924.56	25834.72
924.74	25895.17
924.91	25797.28
925.08	25631.39
925.25	25582.32
925.43	25495.41
925.60	25210.58
925.77	25520.89
925.94	25228.68
926.11	25176.42
926.29	25071.32
926.46	25110.80
926.63	25012.91
926.80	24978.58
926.97	24759.53
927.15	24910.75
927.32	24568.50
927.49	24520.90
927.66	24561.94
927.83	24603.64
928.01	24268.02
928.18	24220.02
928.35	23988.68
928.52	24205.60
928.69	23823.77
928.87	23871.94
929.04	23725.72
929.21	23784.04
929.38	23455.55
929.55	23645.68
929.72	23261.81
929.90	23358.07
930.07	23294.58
930.24	23138.36
930.41	23083.72
930.58	23020.48
930.75	23088.64
930.93	22927.67
931.10	22909.23
931.27	22626.53
931.44	22685.76
931.61	22563.62
931.78	22694.36
931.95	22440.17
932.13	22241.84
932.30	22537.98
932.47	22055.39
932.64	22261.01
932.81	22186.38
932.98	22101.92
933.15	22032.46
933.33	21809.80
933.50	21977.41
933.67	21685.70
933.84	21669.64
934.01	21628.76
934.18	21583.38
934.35	21517.93
934.52	21357.61
934.70	21412.50
934.87	21268.40
935.04	21198.36
935.21	21148.06
935.38	21011.91
935.55	20968.25
935.72	21102.27
935.89	20827.35
936.06	20881.34
936.24	20581.68
936.41	20845.05
936.58	20588.48
936.75	20547.35
936.92	20540.64
937.09	20476.16
937.26	20252.77
937.43	20357.22
937.60	20361.64
937.77	20226.39
937.94	20097.86
938.12	20169.87
938.29	19909.53
938.46	20010.29
938.63	19684.42
938.80	19896.92
938.97	19658.37
939.14	19568.51
939.31	19546.39
939.48	19578.50
939.65	19312.75
939.82	19320.62
939.99	19353.71
940.16	19204.54
940.33	19178.57
940.50	19157.27
940.67	19027.43
940.85	19052.09
941.02	18933.39
941.19	18918.23
941.36	18816.25
941.53	18802.16
941.70	18714.83
941.87	18468.83
942.04	18579.99
942.21	18543.70
942.38	18462.68
942.55	18271.65
942.72	18344.88
942.89	18308.43
943.06	18056.45
943.23	18110.35
943.40	17985.75
943.57	18049.49
943.74	17885.32
943.91	17932.92
944.08	17888.43
944.25	17939.55
944.42	17652.51
944.59	17588.77
944.76	17688.80
944.93	17521.52
945.10	17524.80
945.27	17470.32
945.44	17246.44
945.61	17272.32
945.78	17171.97
945.95	17198.27
946.12	17058.35
946.29	17177.87
946.46	17109.63
946.63	16990.36
946.80	16994.13
946.97	16932.03
947.14	16787.04
947.31	16939.57
947.48	16717.41
947.65	16628.44
947.82	16670.79
947.99	16769.75
948.16	16493.28
948.33	16674.07
948.50	16340.91
948.67	16379.41
948.84	16289.95
949.01	16192.31
949.18	16157.49
949.35	16270.37
949.52	16015.44
949.68	16019.38
949.85	15991.69
950.02	15919.60
950.19	15895.35
950.36	15814.74
950.53	15744.70
950.70	15641.73
950.87	15691.70
951.04	15747.73
951.21	15566.20
951.38	15444.47
951.55	15500.42
951.72	15422.76
951.89	15318.64
952.06	15361.57
952.23	15284.97
952.39	15173.32
952.56	15027.42
952.73	15179.38
952.90	14943.70
953.07	15057.57
953.24	14815.09
953.41	14882.34
953.58	14728.17
953.75	14906.43
953.92	14626.43
954.09	14634.46
954.25	14495.93
954.42	14582.85
954.59	14458.33
954.76	14412.87
954.93	14354.95
955.10	14408.69
955.27	14248.05
955.44	14214.95
955.61	14232.56
955.77	14262.79
955.94	14170.31
956.11	14139.34
956.28	14105.67
956.45	14017.85
956.62	14056.36
956.79	14019.90
956.96	13960.84
957.12	13913.00
957.29	13862.21
957.46	13811.75
957.63	13686.49
957.80	13631.12
957.97	13618.58
958.14	13721.39
958.30	13385.52
958.47	13486.12
958.64	13395.03
958.81	13527.57
958.98	13297.54
959.15	13291.73
959.32	13390.77
959.48	13295.09
959.65	13136.24
959.82	13269.04
959.99	13111.10
960.16	13200.96
960.33	13102.99
960.49	13054.33
960.66	12990.68
960.83	12932.84
961.00	12992.40
961.17	12942.02
961.33	12860.18
961.50	12836.09
961.67	12711.50
961.84	12777.03
962.01	12641.70
962.18	12695.03
962.34	12577.64
962.51	12587.14
962.68	12351.71
962.85	12553.48
963.02	12301.57
963.18	12374.15
963.35	12218.67
963.52	12245.54
963.69	12227.36
963.86	12204.42
964.02	12087.03
964.19	12156.99
964.36	12027.56
964.53	12032.80
964.69	11838.90
964.86	12032.39
965.03	11798.51
965.20	11940.15
965.37	11723.72
965.53	11723.64
965.70	11722.66
965.87	11785.57
966.04	11701.60
966.20	11643.44
966.37	11577.50
966.54	11429.39
966.71	11556.77
966.87	11441.26
967.04	11473.79
967.21	11381.46
967.38	11309.37
967.54	11384.41
967.71	11329.45
967.88	11270.63
968.05	11188.22
968.21	11182.56
968.38	11060.26
968.55	11149.22
968.72	11047.40
968.88	10928.13
969.05	11055.10
969.22	10951.55
969.39	10943.12
969.55	10928.70
969.72	10751.59
969.89	10798.28
970.05	10919.11
970.22	10842.03
970.39	10753.47
970.56	10799.10
970.72	10726.28
970.89	10738.73
971.06	10623.88
971.22	10620.03
971.39	10625.76
971.56	10633.30
971.73	10497.48
971.89	10523.86
972.06	10473.48
972.23	10502.48
972.39	10291.78
972.56	10400.32
972.73	10207.98
972.89	10272.61
973.06	10295.30
973.23	10240.25
973.39	10152.11
973.56	10196.59
973.73	10117.54
973.89	10120.08
974.06	10060.85
974.23	10039.22
974.39	9982.70
974.56	9922.65
974.73	9876.04
974.89	9799.69
975.06	9841.80
975.23	9947.31
975.39	9719.17
975.56	9788.47
975.73	9752.02
975.89	9727.11
976.06	9695.49
976.23	9652.40
976.39	9608.82
976.56	9614.64
976.73	9581.54
976.89	9533.21
977.06	9476.12
977.23	9416.31
977.39	9434.09
977.56	9446.46
977.72	9294.91
977.89	9379.21
978.06	9313.75
978.22	9267.55
978.39	9247.81
978.56	9263.54
978.72	9130.09
978.89	9219.63
979.05	9124.03
979.22	9162.20
979.39	9062.51
979.55	9064.39
979.72	9024.74
979.88	9059.39
980.05	8910.14
980.22	9025.40
980.38	8936.43
980.55	8881.71
980.71	8823.22
980.88	8867.46
981.05	8866.56
981.21	8792.67
981.38	8745.65
981.54	8789.72
981.71	8701.74
981.88	8699.44
982.04	8669.95
982.21	8646.61
982.37	8579.51
982.54	8660.12
982.70	8521.27
982.87	8561.16
983.04	8374.06
983.20	8566.90
983.37	8368.66
983.53	8490.55
983.70	8416.91
983.86	8432.72
984.03	8300.42
984.20	8385.61
984.36	8353.09
984.53	8320.98
984.69	8215.88
984.86	8177.38
985.02	8216.86
985.19	8229.23
985.35	8096.85
985.52	8112.25
985.68	8079.48
985.85	8077.93
986.02	8032.79
986.18	8049.99
986.35	8024.60
986.51	8068.34
986.68	8011.16
986.84	7990.27
987.01	7946.45
987.17	8007.39
987.34	7949.64
987.50	7897.46
987.67	7806.61
987.83	7915.81
988.00	7822.26
988.16	7789.41
988.33	7778.51
988.49	7807.43
988.66	7729.77
988.82	7693.89
988.99	7696.51
989.15	7712.40
989.32	7539.15
989.48	7549.71
989.65	7519.16
989.81	7519.49
989.98	7431.75
990.14	7407.58
990.31	7494.91
990.47	7440.76
990.64	7424.79
990.80	7402.51
990.97	7336.15
991.13	7378.91
991.30	7358.02
991.46	7302.97
991.63	7283.72
991.79	7311.08
991.95	7181.00
992.12	7287.90
992.28	7213.27
992.45	7194.02
992.61	7219.66
992.78	7152.65
992.94	7164.70
993.11	7225.40
993.27	7109.81
993.44	7112.68
993.60	7120.38
993.76	7068.11
993.93	7078.60
994.09	7083.35
994.26	7018.14
994.42	6979.31
994.59	6922.38
994.75	6971.45
994.91	6926.48
995.08	6817.52
995.24	6771.24
995.41	6842.10
995.57	6815.07
995.74	6760.34
995.90	6804.01
996.06	6763.95
996.23	6774.76
996.39	6690.63
996.56	6647.71
996.72	6684.24
996.88	6708.08
997.05	6716.44
997.21	6654.92
997.38	6653.85
997.54	6517.29
997.70	6589.22
997.87	6621.33
998.03	6577.75
998.20	6460.03
998.36	6518.77
998.52	6442.83
998.69	6550.06
998.85	6426.36
999.02	6507.30
999.18	6395.40
999.34	6444.63
999.51	6412.52
999.67	6426.69
999.83	6426.03
1000.00	6353.45
1000.16	6308.48
1000.33	6313.72
1000.49	6270.31
1000.65	6303.07
1000.82	6327.73
1000.98	6209.11
1001.14	6203.63
1001.31	6252.37
1001.47	6235.90
1001.63	6209.93
1001.80	6117.61
1001.96	6113.27
1002.12	6119.74
1002.29	6151.36
1002.45	6094.59
1002.61	6057.81
1002.78	6090.99
1002.94	6030.61
1003.10	6010.62
1003.27	6021.52
1003.43	5965.57
1003.59	5983.59
1003.76	6009.48
1003.92	5975.40
1004.08	5938.54
1004.25	6017.10
1004.41	5951.97
1004.57	5904.29
1004.74	5873.08
1004.90	5998.58
1005.06	5845.48
1005.23	5841.05
1005.39	5849.24
1005.55	5863.66
1005.71	5842.36
1005.88	5783.96
1006.04	5852.77
1006.20	5783.96
1006.37	5699.66
1006.53	5696.22
1006.69	5708.26
1006.85	5740.37
1007.02	5659.60
1007.18	5714.82
1007.34	5636.58
1007.51	5692.53
1007.67	5601.44
1007.83	5582.03
1007.99	5579.16
1008.16	5583.91
1008.32	5523.95
1008.48	5588.91
1008.64	5560.81
1008.81	5560.07
1008.97	5514.03
1009.13	5529.19
1009.29	5492.65
1009.46	5505.68
1009.62	5525.83
1009.78	5456.85
1009.95	5494.86
1010.11	5433.26
1010.27	5417.29
1010.43	5392.79
1010.59	5450.79
1010.76	5394.19
1010.92	5366.25
1011.08	5350.77
1011.24	5318.00
1011.41	5464.96
1011.57	5336.84
1011.73	5335.20
1011.89	5235.35
1012.06	5320.70
1012.22	5240.34
1012.38	5255.83
1012.54	5243.62
1012.70	5219.70
1012.87	5163.75
1013.03	5224.45
1013.19	5201.59
1013.35	5237.64
1013.51	5110.75
1013.68	5199.06
1013.84	5149.99
1014.00	5162.36
1014.16	5102.23
1014.32	5109.76
1014.49	5093.05
1014.65	5192.26
1014.81	5027.19
1014.97	5103.78
1015.13	5055.37
1015.30	5092.56
1015.46	5056.60
1015.62	5044.80
1015.78	5015.39
1015.94	5024.24
1016.10	4987.30
1016.27	4985.08
1016.43	4958.71
1016.59	4985.90
1016.75	4973.70
1016.91	4998.19
1017.07	4937.08
1017.24	4949.78
1017.40	4888.58
1017.56	4897.59
1017.72	4872.53
1017.88	4875.07
1018.04	4848.28
1018.21	4888.67
1018.37	4875.97
1018.53	4872.12
1018.69	4861.63
1018.85	4802.24
1019.01	4786.84
1019.17	4827.72
1019.34	4792.57
1019.50	4783.48
1019.66	4720.32
1019.82	4740.80
1019.98	4701.32
1020.14	4821.33
1020.30	4763.00
1020.46	4755.38
1020.63	4700.66
1020.79	4683.46
1020.95	4699.02
1021.11	4711.47
1021.27	4634.88
1021.43	4660.77
1021.59	4742.93
1021.75	4620.95
1021.91	4611.29
1022.07	4628.98
1022.24	4618.42
1022.40	4562.87
1022.56	4573.77
1022.72	4649.71
1022.88	4580.73
1023.04	4634.06
1023.20	4556.89
1023.36	4556.65
1023.52	4598.51
1023.68	4569.84
1023.84	4524.45
1024.01	4542.72
1024.17	4479.07
1024.33	4533.47
1024.49	4505.53
1024.65	4468.34
1024.81	4506.92
1024.97	4501.84
1025.13	4478.99
1025.29	4469.49
1025.45	4413.95
1025.61	4502.34
1025.77	4439.10
1025.93	4455.32
1026.09	4400.35
1026.25	4436.88
1026.41	4404.61
1026.57	4380.20
1026.73	4441.23
1026.90	4373.15
1027.06	4393.14
1027.22	4399.04
1027.38	4404.85
1027.54	4413.70
1027.70	4371.84
1027.86	4357.91
1028.02	4345.63
1028.18	4380.93
1028.34	4368.24
1028.50	4351.44
1028.66	4293.03
1028.82	4373.07
1028.98	4313.92
1029.14	4238.89
1029.30	4314.74
1029.46	4298.69
1029.62	4312.61
1029.78	4234.30
1029.94	4301.47
1030.10	4261.25
1030.26	4198.42
1030.42	4244.70
1030.58	4248.31
1030.74	4241.18
1030.90	4189.41
1031.06	4187.77
1031.22	4166.06
1031.38	4196.12
1031.54	4206.94
1031.70	4180.89
1031.86	4194.90
1032.02	4159.75
1032.18	4134.19
1032.34	4172.37
1032.50	4120.51
1032.66	4182.53
1032.82	4101.51
1032.98	4153.28
1033.14	4156.07
1033.30	4163.93
1033.45	4079.72
1033.61	4147.79
1033.77	4108.88
1033.93	4105.36
1034.09	4082.34
1034.25	4117.07
1034.41	4075.05
1034.57	4069.31
1034.73	4072.92
1034.89	4055.47
1035.05	4075.46
1035.21	4073.74
1035.37	4031.63
1035.53	4030.07
1035.69	4054.32
1035.85	4134.19
1036.01	4000.50
1036.16	4056.45
1036.32	4059.65
1036.48	4029.26
1036.64	3975.44
1036.80	4047.28
1036.96	4021.88
1037.12	4010.66
1037.28	4047.93
1037.44	3995.91
1037.60	4006.73
1037.76	3964.05
1037.91	3987.80
1038.07	4010.66
1038.23	4000.67
1038.39	3973.63
1038.55	3990.34
1038.71	3975.68
1038.87	3938.90
1039.03	4033.68
1039.19	3943.81
1039.35	3948.65
1039.50	3975.93
1039.66	3977.65
1039.82	3915.55
1039.98	3911.05
1040.14	3873.04
1040.30	3893.19
1040.46	3863.62
1040.62	3865.25
1040.77	3907.85
1040.93	3960.53
1041.09	3874.76
1041.25	3860.50
1041.41	3909.41
1041.57	3886.23
1041.73	3886.23
1041.88	3886.23

