SpectraSuite Data File
++++++++++++++++++++++++++++++++++++
Date: Tue Sep 13 11:01:19 EDT 2022
User: Laboratoire
Dark Spectrum Present: No
Reference Spectrum Present: No
Number of Sampled Component Spectra: 1
Spectrometers: FLMT00174
Integration Time (usec): 3000 (FLMT00174)
Spectra Averaged: 25 (FLMT00174)
Boxcar Smoothing: 0 (FLMT00174)
Correct for Electrical Dark: No (FLMT00174)
Strobe/Lamp Enabled: No (FLMT00174)
Correct for Detector Non-linearity: No (FLMT00174)
Correct for Stray Light: No (FLMT00174)
Number of Pixels in Processed Spectrum: 3648
>>>>>Begin Processed Spectral Data<<<<<
345.74	3070.48
345.96	3070.48
346.18	3070.48
346.39	3074.16
346.61	3079.00
346.83	3072.20
347.05	3056.63
347.27	3075.48
347.49	3082.60
347.71	3083.50
347.93	3065.48
348.15	3072.44
348.36	3055.16
348.58	3093.91
348.80	3073.18
349.02	3077.52
349.24	3067.28
349.46	3094.48
349.68	3073.26
349.90	3069.58
350.11	3069.50
350.33	3081.37
350.55	3066.14
350.77	3080.64
350.99	3067.37
351.21	3077.44
351.43	3068.35
351.65	3082.03
351.86	3059.01
352.08	3085.14
352.30	3064.66
352.52	3083.09
352.74	3061.30
352.96	3087.68
353.18	3073.76
353.39	3078.10
353.61	3065.15
353.83	3064.17
354.05	3069.25
354.27	3086.70
354.49	3068.35
354.70	3065.89
354.92	3077.61
355.14	3082.85
355.36	3070.64
355.58	3086.04
355.80	3076.46
356.02	3069.82
356.23	3080.96
356.45	3069.41
356.67	3085.63
356.89	3068.43
357.11	3087.19
357.33	3089.65
357.54	3068.59
357.76	3074.66
357.98	3064.09
358.20	3080.06
358.42	3076.62
358.63	3083.50
358.85	3084.08
359.07	3076.29
359.29	3061.22
359.51	3078.26
359.73	3070.07
359.94	3081.05
360.16	3046.39
360.38	3079.41
360.60	3078.34
360.82	3084.08
361.03	3069.50
361.25	3082.44
361.47	3062.20
361.69	3075.97
361.91	3074.16
362.12	3070.56
362.34	3082.77
362.56	3085.96
362.78	3071.46
363.00	3074.57
363.21	3086.04
363.43	3071.22
363.65	3060.57
363.87	3081.95
364.09	3073.26
364.30	3086.45
364.52	3068.68
364.74	3091.61
364.96	3071.71
365.17	3079.65
365.39	3056.31
365.61	3067.04
365.83	3063.02
366.05	3077.69
366.26	3060.89
366.48	3103.66
366.70	3068.27
366.92	3093.09
367.13	3071.71
367.35	3075.56
367.57	3081.87
367.79	3075.39
368.01	3074.16
368.22	3085.63
368.44	3068.76
368.66	3077.85
368.88	3085.14
369.09	3060.16
369.31	3080.64
369.53	3079.82
369.75	3067.86
369.96	3089.81
370.18	3068.43
370.40	3080.39
370.62	3071.38
370.83	3071.54
371.05	3075.80
371.27	3080.80
371.49	3069.25
371.70	3076.62
371.92	3060.81
372.14	3063.52
372.36	3074.82
372.57	3074.49
372.79	3065.81
373.01	3096.04
373.22	3080.06
373.44	3078.92
373.66	3075.39
373.88	3075.48
374.09	3083.91
374.31	3084.32
374.53	3076.70
374.75	3089.48
374.96	3071.22
375.18	3074.66
375.40	3052.87
375.61	3075.39
375.83	3063.93
376.05	3075.97
376.27	3070.81
376.48	3079.49
376.70	3070.97
376.92	3081.29
377.13	3088.99
377.35	3065.81
377.57	3075.39
377.79	3075.48
378.00	3074.90
378.22	3078.34
378.44	3087.68
378.65	3081.46
378.87	3072.85
379.09	3080.88
379.30	3084.81
379.52	3095.38
379.74	3069.99
379.96	3057.29
380.17	3072.04
380.39	3081.21
380.61	3073.02
380.82	3081.13
381.04	3069.99
381.26	3079.33
381.47	3081.70
381.69	3080.80
381.91	3069.50
382.12	3090.55
382.34	3073.26
382.56	3079.90
382.77	3072.36
382.99	3068.18
383.21	3084.16
383.42	3074.41
383.64	3076.79
383.86	3078.26
384.07	3077.11
384.29	3085.63
384.51	3067.12
384.72	3098.66
384.94	3081.05
385.16	3083.34
385.37	3073.43
385.59	3081.37
385.81	3081.70
386.02	3077.77
386.24	3064.17
386.46	3078.18
386.67	3069.99
386.89	3085.72
387.11	3062.94
387.32	3091.86
387.54	3070.81
387.76	3076.05
387.97	3088.17
388.19	3078.42
388.40	3059.42
388.62	3086.21
388.84	3071.38
389.05	3090.47
389.27	3067.20
389.49	3085.80
389.70	3056.72
389.92	3080.47
390.14	3059.99
390.35	3084.08
390.57	3068.51
390.78	3072.36
391.00	3083.09
391.22	3072.69
391.43	3069.41
391.65	3080.39
391.86	3060.98
392.08	3062.37
392.30	3076.87
392.51	3074.90
392.73	3064.01
392.95	3074.00
393.16	3065.65
393.38	3091.12
393.59	3078.67
393.81	3090.38
394.03	3075.39
394.24	3080.47
394.46	3073.10
394.67	3084.40
394.89	3079.08
395.11	3090.47
395.32	3084.57
395.54	3081.05
395.75	3067.53
395.97	3081.37
396.19	3075.07
396.40	3080.23
396.62	3083.83
396.83	3096.69
397.05	3080.88
397.26	3078.02
397.48	3066.05
397.70	3088.58
397.91	3071.54
398.13	3066.96
398.34	3083.83
398.56	3088.17
398.78	3074.57
398.99	3099.48
399.21	3065.65
399.42	3064.09
399.64	3069.74
399.85	3082.44
400.07	3082.27
400.29	3083.26
400.50	3078.83
400.72	3096.45
400.93	3065.97
401.15	3066.79
401.36	3087.35
401.58	3083.75
401.79	3074.74
402.01	3087.44
402.23	3072.12
402.44	3085.22
402.66	3068.10
402.87	3082.52
403.09	3086.21
403.30	3065.15
403.52	3054.34
403.73	3086.29
403.95	3061.39
404.16	3071.63
404.38	3067.78
404.60	3075.64
404.81	3067.04
405.03	3076.13
405.24	3067.53
405.46	3083.01
405.67	3080.39
405.89	3080.23
406.10	3062.37
406.32	3083.01
406.53	3069.74
406.75	3067.78
406.96	3066.87
407.18	3095.22
407.39	3071.30
407.61	3081.21
407.82	3070.15
408.04	3086.37
408.25	3072.28
408.47	3089.40
408.68	3085.55
408.90	3087.76
409.12	3085.72
409.33	3069.00
409.55	3093.42
409.76	3096.36
409.98	3078.26
410.19	3086.29
410.41	3079.33
410.62	3084.65
410.84	3082.60
411.05	3065.07
411.27	3055.24
411.48	3092.60
411.70	3074.82
411.91	3079.74
412.12	3085.96
412.34	3084.65
412.55	3079.33
412.77	3072.61
412.98	3081.05
413.20	3080.39
413.41	3068.18
413.63	3076.46
413.84	3070.56
414.06	3078.18
414.27	3080.06
414.49	3094.56
414.70	3077.44
414.92	3088.75
415.13	3065.56
415.35	3099.81
415.56	3089.57
415.78	3099.97
415.99	3076.46
416.21	3092.92
416.42	3107.10
416.63	3108.08
416.85	3106.77
417.06	3102.75
417.28	3084.49
417.49	3119.55
417.71	3113.40
417.92	3116.27
418.14	3093.91
418.35	3090.79
418.57	3091.61
418.78	3085.55
418.99	3087.03
419.21	3095.96
419.42	3087.44
419.64	3100.79
419.85	3099.81
420.07	3100.54
420.28	3105.70
420.50	3110.95
420.71	3086.29
420.92	3112.34
421.14	3098.58
421.35	3099.97
421.57	3093.99
421.78	3108.57
422.00	3098.17
422.21	3103.74
422.42	3112.91
422.64	3114.22
422.85	3115.78
423.07	3118.48
423.28	3116.60
423.50	3130.93
423.71	3118.16
423.92	3122.33
424.14	3129.71
424.35	3133.72
424.57	3103.00
424.78	3135.19
424.99	3136.67
425.21	3149.28
425.42	3136.18
425.64	3153.63
425.85	3133.15
426.06	3158.87
426.28	3134.05
426.49	3151.41
426.71	3156.66
426.92	3157.72
427.13	3146.25
427.35	3162.88
427.56	3155.92
427.78	3175.66
427.99	3145.76
428.20	3185.25
428.42	3173.20
428.63	3191.55
428.84	3179.84
429.06	3187.46
429.27	3189.26
429.49	3201.14
429.70	3197.45
429.91	3223.26
430.13	3208.76
430.34	3243.41
430.56	3215.07
430.77	3273.88
430.98	3195.73
431.20	3255.86
431.41	3247.18
431.62	3297.64
431.84	3216.54
432.05	3275.11
432.26	3268.39
432.48	3277.16
432.69	3272.57
432.91	3324.59
433.12	3287.89
433.33	3328.93
433.55	3325.74
433.76	3362.60
433.97	3312.47
434.19	3382.75
434.40	3367.02
434.61	3443.62
434.83	3369.56
435.04	3419.04
435.25	3413.55
435.47	3443.29
435.68	3374.56
435.89	3498.91
436.11	3456.81
436.32	3515.46
436.53	3477.78
436.75	3534.22
436.96	3501.45
437.17	3537.74
437.39	3484.25
437.60	3609.18
437.81	3529.31
438.03	3584.60
438.24	3589.84
438.45	3690.77
438.67	3591.56
438.88	3729.27
439.09	3676.51
439.31	3727.39
439.52	3682.82
439.73	3762.61
439.94	3666.93
440.16	3831.83
440.37	3709.53
440.58	3856.41
440.80	3824.21
441.01	3831.83
441.22	3976.34
441.44	3974.94
441.65	3878.44
441.86	3972.73
442.08	3942.75
442.29	4002.80
442.50	3992.31
442.71	4055.22
442.93	4041.05
443.14	4097.49
443.35	4135.67
443.57	4083.49
443.78	4118.22
443.99	4276.16
444.20	4099.62
444.42	4279.35
444.63	4209.80
444.84	4295.25
445.06	4344.32
445.27	4346.85
445.48	4246.42
445.69	4425.01
445.91	4351.52
446.12	4396.09
446.33	4412.23
446.54	4591.71
446.76	4420.09
446.97	4614.81
447.18	4507.42
447.39	4645.86
447.61	4613.09
447.82	4747.36
448.03	4583.68
448.25	4753.75
448.46	4763.98
448.67	4917.01
448.88	4729.42
449.10	5032.35
449.31	4945.93
449.52	4949.04
449.73	4912.91
449.95	5200.61
450.16	4946.91
450.37	5275.32
450.58	5346.26
450.79	5150.31
451.01	5137.12
451.22	5219.21
451.43	5178.33
451.64	5422.78
451.86	5313.33
452.07	5458.08
452.28	5444.40
452.49	5612.01
452.71	5440.63
452.92	5533.20
453.13	5566.30
453.34	5693.93
453.55	5744.22
453.77	5919.61
453.98	5747.17
454.19	5786.99
454.40	5828.03
454.62	6058.14
454.83	5788.38
455.04	6150.79
455.25	5921.58
455.46	6440.04
455.68	6071.57
455.89	6207.72
456.10	6205.51
456.31	6341.74
456.52	6334.86
456.74	6329.62
456.95	6606.26
457.16	6555.47
457.37	6516.72
457.58	6663.11
457.80	6561.04
458.01	6714.55
458.22	7052.22
458.43	6849.80
458.64	6898.38
458.86	6777.79
459.07	6928.69
459.28	6950.64
459.49	7010.20
459.70	7508.18
459.91	7256.61
460.13	7327.39
460.34	7337.87
460.55	7378.83
460.76	7505.31
460.97	7518.67
461.19	7500.32
461.40	7987.82
461.61	7581.99
461.82	7881.32
462.03	7800.14
462.24	7980.85
462.46	7803.42
462.67	7970.45
462.88	8042.95
463.09	8105.94
463.30	8255.28
463.51	8168.61
463.72	8438.70
463.94	8596.88
464.15	8463.60
464.36	8491.04
464.57	8765.22
464.78	8745.65
464.99	8799.47
465.20	8846.73
465.42	8949.79
465.63	9031.95
465.84	8949.38
466.05	9211.60
466.26	9234.62
466.47	9523.46
466.68	9255.92
466.90	9655.68
467.11	9449.25
467.32	9729.74
467.53	9762.26
467.74	9674.19
467.95	9779.87
468.16	10059.29
468.37	10069.29
468.59	10184.96
468.80	10392.95
469.01	10217.15
469.22	10470.77
469.43	10782.72
469.64	10514.68
469.85	10768.96
470.06	10802.95
470.28	11142.42
470.49	10663.28
470.70	11219.92
470.91	11419.80
471.12	11283.00
471.33	11665.15
471.54	11495.82
471.75	11534.16
471.96	12056.47
472.17	11883.22
472.39	12360.88
472.60	12004.37
472.81	12446.57
473.02	12298.05
473.23	12753.36
473.44	12672.91
473.65	12642.27
473.86	12719.44
474.07	13000.67
474.28	12953.16
474.49	13547.40
474.71	13320.56
474.92	13705.25
475.13	13455.32
475.34	13751.21
475.55	13761.86
475.76	13957.07
475.97	14174.32
476.18	14307.11
476.39	14478.32
476.60	14697.78
476.81	14730.88
477.02	15172.66
477.23	14990.97
477.44	15118.68
477.65	15294.31
477.87	15610.36
478.08	15681.46
478.29	15815.07
478.50	16191.24
478.71	16066.81
478.92	16248.83
479.13	16439.05
479.34	16435.11
479.55	16731.17
479.76	16742.06
479.97	16960.05
480.18	17358.83
480.39	17148.79
480.60	17583.78
480.81	17690.52
481.02	17700.43
481.23	17845.02
481.44	18221.11
481.65	18358.65
481.86	18627.09
482.07	18284.76
482.28	19271.96
482.49	18935.27
482.71	18982.21
482.92	19448.58
483.13	19637.97
483.34	19456.52
483.55	19699.41
483.76	19772.16
483.97	20103.52
484.18	20223.12
484.39	20495.66
484.60	20370.41
484.81	20732.98
485.02	20735.52
485.23	20980.54
485.44	21321.07
485.65	21379.65
485.86	21317.96
486.07	21825.69
486.28	21794.57
486.49	22037.04
486.70	22313.77
486.91	22492.35
487.12	22506.19
487.33	22346.78
487.54	22972.48
487.75	23010.49
487.96	23212.82
488.17	23091.58
488.38	23542.30
488.59	23584.90
488.80	23791.74
489.01	23780.03
489.22	24248.77
489.43	24200.93
489.64	24117.37
489.85	24647.22
490.06	24339.78
490.26	24798.85
490.47	24774.77
490.68	25253.42
490.89	25532.35
491.10	25021.26
491.31	25615.01
491.52	25843.89
491.73	25759.60
491.94	25724.21
492.15	26221.62
492.36	26366.04
492.57	26415.36
492.78	26419.78
492.99	26662.42
493.20	26867.38
493.41	26920.39
493.62	26946.68
493.83	27079.39
494.04	27155.98
494.25	27571.39
494.46	27444.58
494.67	27423.37
494.88	27751.04
495.08	27973.70
495.29	27979.10
495.50	28385.50
495.71	28133.60
495.92	28523.94
496.13	28608.08
496.34	28438.50
496.55	28614.30
496.76	29274.40
496.97	28656.90
497.18	29164.80
497.39	29043.88
497.60	29606.58
497.81	29053.14
498.02	29496.89
498.22	29244.99
498.43	29904.93
498.64	29959.49
498.85	29930.16
499.06	30076.63
499.27	30554.22
499.48	29869.79
499.69	30205.82
499.90	30367.61
500.11	30633.76
500.32	30971.02
500.52	30605.91
500.73	31194.25
500.94	31318.68
501.15	31236.68
501.36	31348.83
501.57	31228.08
501.78	31520.70
501.99	31774.97
502.20	31837.97
502.41	31896.95
502.61	31807.74
502.82	32204.23
503.03	31986.32
503.24	32300.48
503.45	32145.25
503.66	32563.85
503.87	32550.09
504.08	32678.45
504.28	32508.39
504.49	32739.65
504.70	32985.40
504.91	33128.19
505.12	32898.65
505.33	33251.80
505.54	33397.95
505.75	33481.01
505.95	33788.45
506.16	33519.19
506.37	33500.92
506.58	34035.44
506.79	33398.19
507.00	34130.71
507.21	33836.38
507.41	33829.41
507.62	33997.18
507.83	34599.94
508.04	34236.96
508.25	34520.07
508.46	34374.01
508.67	34747.72
508.87	34592.40
509.08	34923.77
509.29	34897.96
509.50	34929.83
509.71	35121.11
509.92	35297.97
510.12	35158.79
510.33	35313.78
510.54	35408.15
510.75	35430.35
510.96	35859.36
511.17	36171.47
511.37	36142.47
511.58	36182.37
511.79	36017.87
512.00	35978.72
512.21	36406.00
512.42	36339.73
512.62	36577.62
512.83	36801.92
513.04	36605.88
513.25	36878.43
513.46	36142.47
513.66	37229.04
513.87	36950.11
514.08	37289.17
514.29	37152.36
514.50	37164.00
514.71	37587.03
514.91	37370.51
515.12	37304.24
515.33	37690.08
515.54	37622.99
515.75	38018.66
515.95	37812.63
516.16	37785.92
516.37	38198.80
516.58	38369.68
516.78	38128.75
516.99	38291.85
517.20	38335.60
517.41	38428.00
517.62	38544.49
517.82	38501.98
518.03	39110.96
518.24	39410.21
518.45	38785.17
518.66	39206.31
518.86	38996.93
519.07	39509.99
519.28	38792.13
519.49	39640.89
519.69	39652.93
519.90	39683.08
520.11	39812.18
520.32	39750.50
520.52	40192.94
520.73	39748.21
520.94	40304.60
521.15	40106.27
521.36	39767.87
521.56	40620.40
521.77	40089.23
521.98	40725.99
522.19	40306.15
522.39	40720.42
522.60	40547.08
522.81	40606.47
523.02	40524.14
523.22	41028.68
523.43	41068.41
523.64	40955.12
523.84	41095.36
524.05	41365.61
524.26	41449.66
524.47	41142.87
524.67	41349.88
524.88	41546.32
525.09	42050.86
525.30	41637.25
525.50	41486.11
525.71	41757.76
525.92	41788.72
526.13	42257.71
526.33	41996.14
526.54	41671.90
526.75	42067.57
526.95	42470.04
527.16	41842.46
527.37	42374.77
527.58	42556.63
527.78	42567.52
527.99	42905.68
528.20	43095.57
528.40	42733.08
528.61	42597.26
528.82	43066.73
529.03	43057.64
529.23	42726.20
529.44	43280.46
529.65	43238.19
529.85	43470.02
530.06	43323.14
530.27	43458.88
530.47	43013.49
530.68	43930.65
530.89	43045.35
531.09	43774.10
531.30	43872.00
531.51	43390.31
531.72	44108.82
531.92	44076.55
532.13	44233.75
532.34	43970.13
532.54	44031.25
532.75	44286.83
532.96	44265.37
533.16	44511.62
533.37	44793.50
533.58	44425.19
533.78	44838.56
533.99	44866.33
534.20	44357.20
534.40	44790.22
534.61	45012.63
534.82	45236.19
535.02	45189.41
535.23	45015.83
535.44	45330.40
535.64	44968.72
535.85	45415.75
536.06	45273.13
536.26	45373.81
536.47	45279.03
536.68	46005.24
536.88	45227.92
537.09	46022.20
537.29	45395.28
537.50	46177.76
537.71	45597.29
537.91	45791.84
538.12	46088.23
538.33	45829.69
538.53	46161.30
538.74	46247.72
538.95	46232.32
539.15	46090.44
539.36	46323.25
539.56	46646.75
539.77	46279.42
539.98	46408.94
540.18	46632.08
540.39	46308.34
540.60	46732.27
540.80	46894.63
541.01	46728.99
541.21	46868.26
541.42	47015.22
541.63	46896.85
541.83	47170.45
542.04	47121.06
542.25	47037.83
542.45	47476.26
542.66	47311.11
542.86	47640.75
543.07	46592.11
543.28	47526.06
543.48	47328.31
543.69	47753.63
543.89	47441.44
544.10	48126.36
544.31	47824.58
544.51	47711.12
544.72	47833.75
544.92	47593.56
545.13	48244.66
545.33	48036.75
545.54	47812.45
545.75	48185.59
545.95	47922.80
546.16	47935.99
546.36	48602.97
546.57	47531.88
546.78	46565.16
546.98	47312.91
547.19	46354.05
547.39	47785.17
547.60	48175.84
547.80	48914.34
548.01	48866.34
548.22	48596.25
548.42	48611.98
548.63	48907.79
548.83	48692.01
549.04	48982.66
549.24	48601.90
549.45	49016.74
549.65	49439.36
549.86	48516.87
550.07	48936.13
550.27	49404.46
550.48	49435.10
550.68	49183.69
550.89	48973.08
551.09	49403.23
551.30	49041.48
551.50	49615.40
551.71	49291.99
551.91	49366.61
552.12	49505.96
552.33	49796.44
552.53	49301.16
552.74	50041.71
552.94	50133.05
553.15	49695.35
553.35	50076.03
553.56	49584.52
553.76	50048.42
553.97	49745.16
554.17	49964.62
554.38	50692.80
554.58	49942.42
554.79	50545.02
554.99	49963.80
555.20	50050.55
555.40	50716.39
555.61	50333.58
555.81	49906.05
556.02	50975.17
556.22	50682.64
556.43	50438.11
556.63	50448.35
556.84	50211.61
557.04	51039.40
557.25	50222.58
557.45	50702.71
557.66	50761.12
557.86	50531.17
558.07	51144.01
558.27	50655.28
558.48	50856.72
558.68	50702.63
558.89	50985.74
559.09	51029.65
559.30	50642.74
559.50	50949.94
559.71	50605.14
559.91	51348.64
560.12	51044.88
560.32	51117.96
560.53	51401.80
560.73	50898.00
560.94	51685.73
561.14	50992.54
561.35	51809.51
561.55	51259.02
561.76	51493.63
561.96	51006.96
562.17	51320.87
562.37	51593.66
562.57	51352.49
562.78	51375.51
562.98	51624.05
563.19	51779.37
563.39	51799.36
563.60	51858.42
563.80	51419.01
564.01	52067.15
564.21	51715.31
564.42	51758.97
564.62	51903.64
564.82	52199.77
565.03	51774.86
565.23	51826.63
565.44	52095.49
565.64	51755.77
565.85	52201.49
566.05	51904.95
566.25	52361.89
566.46	51781.25
566.66	52192.65
566.87	52139.56
567.07	52160.78
567.28	52223.29
567.48	52504.76
567.68	51855.14
567.89	52949.82
568.09	52242.45
568.30	52135.14
568.50	52636.97
568.71	52328.30
568.91	52472.24
569.11	52295.13
569.32	52304.14
569.52	52636.73
569.73	52067.72
569.93	52617.15
570.13	52484.44
570.34	52450.12
570.54	52787.46
570.75	52439.39
570.95	52617.72
571.15	52473.55
571.36	53134.63
571.56	52560.30
571.77	52495.99
571.97	52121.95
572.17	52910.09
572.38	52792.46
572.58	53023.06
572.79	52708.33
572.99	53063.28
573.19	52820.88
573.40	52883.55
573.60	53099.49
573.81	52955.31
574.01	53188.37
574.21	53035.35
574.42	53184.85
574.62	52764.60
574.82	53321.24
575.03	52846.69
575.23	53312.89
575.43	52926.23
575.64	52865.45
575.84	53312.31
576.05	52906.98
576.25	53136.11
576.45	53056.64
576.66	53750.66
576.86	53271.03
577.06	53605.99
577.27	53392.43
577.47	53438.55
577.67	53324.03
577.88	52805.07
578.08	53703.64
578.28	53480.57
578.49	53399.97
578.69	53541.19
578.89	53127.59
579.10	53369.98
579.30	53943.82
579.50	53513.75
579.71	53212.37
579.91	53759.84
580.11	53507.77
580.32	53526.12
580.52	53466.48
580.72	54064.57
580.93	53488.27
581.13	53475.17
581.33	53931.13
581.54	53453.13
581.74	53667.68
581.94	53754.02
582.15	53894.67
582.35	53636.30
582.55	53700.53
582.76	53424.54
582.96	53940.38
583.16	53637.37
583.37	53949.80
583.57	53672.67
583.77	54068.42
583.97	53190.34
584.18	54335.23
584.38	53978.89
584.58	53643.76
584.79	54040.00
584.99	53915.89
585.19	53967.99
585.40	53887.63
585.60	54288.87
585.80	53696.84
586.00	53955.87
586.21	53925.97
586.41	53953.33
586.61	54287.39
586.82	54067.93
587.02	53966.52
587.22	54437.55
587.42	53784.90
587.63	54541.91
587.83	53823.90
588.03	54196.46
588.23	53881.89
588.44	54238.98
588.64	53853.22
588.84	54073.34
589.05	54250.61
589.25	54470.07
589.45	54354.32
589.65	53968.73
589.86	54228.74
590.06	54337.12
590.26	54048.52
590.46	54494.89
590.67	53845.19
590.87	54287.64
591.07	54798.16
591.27	54080.71
591.48	54778.82
591.68	54160.83
591.88	55145.98
592.08	54206.95
592.29	54702.15
592.49	54426.65
592.69	54697.07
592.89	54513.90
593.10	54456.31
593.30	54402.98
593.50	54985.99
593.70	54055.07
593.90	54950.77
594.11	54705.10
594.31	54736.47
594.51	54940.28
594.71	54948.48
594.92	54944.79
595.12	54633.83
595.32	54593.36
595.52	55050.87
595.72	54142.81
595.93	54977.48
596.13	54637.51
596.33	54452.05
596.53	54977.88
596.73	54761.70
596.94	54787.83
597.14	55108.79
597.34	54790.54
597.54	55294.01
597.74	54738.44
597.95	55007.70
598.15	54889.17
598.35	55116.49
598.55	55271.48
598.75	54888.84
598.96	55448.51
599.16	54962.48
599.36	55126.16
599.56	55030.15
599.76	54842.56
599.97	55460.71
600.17	55256.33
600.37	55296.22
600.57	54422.89
600.77	55589.82
600.97	55064.23
601.18	55770.29
601.38	55239.37
601.58	55465.71
601.78	55303.35
601.98	54924.64
602.18	55346.36
602.39	55638.97
602.59	55361.02
602.79	55435.48
602.99	55419.35
603.19	55598.58
603.39	55408.61
603.60	55613.00
603.80	55395.02
604.00	55234.62
604.20	55318.09
604.40	55424.42
604.60	54964.29
604.80	55143.93
605.01	55363.23
605.21	55311.79
605.41	55166.38
605.61	54719.92
605.81	55272.87
606.01	55597.35
606.21	54960.27
606.42	55456.70
606.62	55202.67
606.82	55687.14
607.02	55290.49
607.22	55491.43
607.42	55665.18
607.62	55020.89
607.82	55572.70
608.03	55401.81
608.23	55438.92
608.43	55080.86
608.63	55771.43
608.83	55585.56
609.03	55537.96
609.23	55562.70
609.43	55700.74
609.63	55315.96
609.84	55229.79
610.04	55783.31
610.24	55577.37
610.44	55680.58
610.64	55363.64
610.84	55497.99
611.04	55901.19
611.24	55676.00
611.44	55033.26
611.64	55725.15
611.85	55621.52
612.05	55636.68
612.25	55787.65
612.45	55350.94
612.65	55694.18
612.85	55698.85
613.05	55543.21
613.25	56007.52
613.45	55740.63
613.65	55638.72
613.85	55277.30
614.05	55723.76
614.25	55989.17
614.46	55600.22
614.66	55543.45
614.86	55314.73
615.06	55595.39
615.26	55873.75
615.46	55057.67
615.66	55951.41
615.86	55791.50
616.06	55536.41
616.26	55457.27
616.46	56157.11
616.66	55562.62
616.86	56030.38
617.06	55519.45
617.26	55990.32
617.46	55776.43
617.66	55482.18
617.86	55329.07
618.07	55810.75
618.27	55714.25
618.47	55736.70
618.67	55755.87
618.87	55780.12
619.07	55528.54
619.27	55353.24
619.47	55379.61
619.67	55742.27
619.87	55220.45
620.07	55636.43
620.27	55559.59
620.47	55249.77
620.67	55519.45
620.87	55664.53
621.07	55743.42
621.27	55818.62
621.47	55283.03
621.67	55753.82
621.87	55333.33
622.07	56011.86
622.27	55668.71
622.47	55411.24
622.67	55619.47
622.87	55165.56
623.07	55640.03
623.27	56048.64
623.47	54960.52
623.67	55434.50
623.87	55909.96
624.07	55697.46
624.27	55322.76
624.47	55745.79
624.67	55358.07
624.87	55672.80
625.07	55260.75
625.27	55783.64
625.47	55400.50
625.67	55161.30
625.87	55457.44
626.07	55296.71
626.27	55647.08
626.47	55549.35
626.67	55393.05
626.87	55148.77
627.07	55667.40
627.27	55517.48
627.47	55739.24
627.67	55349.14
627.87	55292.45
628.07	55609.81
628.27	55307.20
628.47	55091.18
628.67	55667.07
628.86	55616.28
629.06	55257.23
629.26	55104.86
629.46	55571.47
629.66	55646.83
629.86	54964.53
630.06	55511.26
630.26	55188.17
630.46	55678.29
630.66	55089.05
630.86	55272.71
631.06	55276.31
631.26	54967.40
631.46	55495.94
631.66	55328.66
631.86	55081.84
632.06	55514.62
632.26	55154.67
632.45	55202.42
632.65	55283.85
632.85	55295.73
633.05	55209.55
633.25	55400.42
633.45	55003.44
633.65	55233.31
633.85	55782.65
634.05	54749.91
634.25	55040.63
634.45	55317.03
634.65	55598.99
634.84	55213.65
635.04	55386.74
635.24	55017.78
635.44	55430.08
635.64	54913.17
635.84	55441.87
636.04	55250.84
636.24	55138.61
636.44	55197.84
636.64	54605.07
636.84	55474.89
637.03	54767.35
637.23	55135.58
637.43	55122.88
637.63	54723.77
637.83	55083.31
638.03	55140.49
638.23	54694.86
638.43	55115.51
638.62	55504.05
638.82	54562.80
639.02	55320.31
639.22	54856.24
639.42	55152.37
639.62	54637.92
639.82	54866.56
640.02	54976.25
640.21	55157.61
640.41	54346.86
640.61	54890.31
640.81	54775.22
641.01	54742.94
641.21	54576.32
641.41	55316.70
641.61	54677.16
641.80	54670.03
642.00	55080.37
642.20	54938.48
642.40	54395.77
642.60	54866.80
642.80	55074.88
642.99	54519.39
643.19	55035.97
643.39	54293.45
643.59	54956.34
643.79	54690.19
643.99	55156.06
644.19	54943.89
644.38	54420.43
644.58	54858.20
644.78	54449.43
644.98	54485.55
645.18	54716.15
645.38	54989.85
645.57	54469.50
645.77	54692.07
645.97	54416.74
646.17	54756.79
646.37	54669.38
646.56	54461.55
646.76	54637.68
646.96	54560.75
647.16	54159.52
647.36	54601.88
647.55	54384.63
647.75	54587.13
647.95	54264.29
648.15	54648.08
648.35	54568.37
648.55	54674.87
648.74	54427.55
648.94	54449.43
649.14	54883.60
649.34	54425.75
649.54	54314.42
649.73	54324.99
649.93	54076.04
650.13	54289.69
650.33	54054.58
650.52	54469.17
650.72	54647.42
650.92	54293.54
651.12	53987.73
651.32	54274.12
651.51	54295.99
651.71	54326.47
651.91	54083.25
652.11	53797.19
652.30	53721.09
652.50	54235.29
652.70	54252.41
652.90	53652.69
653.10	54059.17
653.29	53774.09
653.49	54141.08
653.69	53678.90
653.89	53837.99
654.08	53881.16
654.28	54137.23
654.48	53818.65
654.68	54083.99
654.87	54045.98
655.07	53466.65
655.27	54017.80
655.47	53606.73
655.66	53589.53
655.86	53603.86
656.06	54144.44
656.26	53332.71
656.45	53872.64
656.65	53741.98
656.85	53689.55
657.04	53404.23
657.24	53421.43
657.44	53242.11
657.64	53851.17
657.83	52957.03
658.03	53713.14
658.23	53506.54
658.43	53370.31
658.62	53441.58
658.82	53272.42
659.02	53223.76
659.21	53390.71
659.41	53051.65
659.61	53658.09
659.81	53212.95
660.00	52981.77
660.20	53310.67
660.40	52973.42
660.59	53135.04
660.79	52620.10
660.99	53220.56
661.19	53202.30
661.38	53185.09
661.58	52546.54
661.78	53052.06
661.97	52669.17
662.17	53499.58
662.37	52737.33
662.56	52768.86
662.76	52616.99
662.96	52716.27
663.15	52946.05
663.35	52840.95
663.55	52510.16
663.74	52410.88
663.94	53000.45
664.14	52333.47
664.33	52816.05
664.53	52551.62
664.73	53010.61
664.93	52144.64
665.12	52736.34
665.32	52460.52
665.52	52427.92
665.71	52242.13
665.91	52318.56
666.10	52206.98
666.30	52653.28
666.50	51950.74
666.69	52009.40
666.89	52360.58
667.09	52702.26
667.28	52152.02
667.48	52062.07
667.68	52124.08
667.87	52156.69
668.07	51939.52
668.27	52412.35
668.46	52478.54
668.66	52275.47
668.86	52685.63
669.05	52237.62
669.25	52428.82
669.44	52048.31
669.64	51967.04
669.84	51984.16
670.03	52284.89
670.23	51961.64
670.43	52050.44
670.62	51976.38
670.82	51860.79
671.01	52197.15
671.21	51727.35
671.41	51838.84
671.60	51987.52
671.80	52167.83
672.00	51765.93
672.19	52006.04
672.39	51890.78
672.58	51757.66
672.78	51798.29
672.98	52260.80
673.17	51912.89
673.37	51189.31
673.56	51655.51
673.76	51624.05
673.96	52016.19
674.15	51877.01
674.35	51874.07
674.54	51638.96
674.74	51688.36
674.94	51645.68
675.13	51771.42
675.33	51232.56
675.52	52023.65
675.72	51712.85
675.91	51710.15
676.11	51932.80
676.31	51127.95
676.50	51316.85
676.70	51289.00
676.89	51391.15
677.09	51658.62
677.28	51532.71
677.48	51054.63
677.68	51656.33
677.87	51280.24
678.07	51375.84
678.26	51312.43
678.46	51353.39
678.65	51164.16
678.85	51375.10
679.04	50833.45
679.24	51185.13
679.44	50793.80
679.63	51245.09
679.83	51144.01
680.02	51117.71
680.22	50937.90
680.41	51209.95
680.61	50829.60
680.80	50807.73
681.00	51069.21
681.19	51040.71
681.39	50922.99
681.59	50801.18
681.78	50686.24
681.98	51022.77
682.17	50602.19
682.37	50936.67
682.56	50371.02
682.76	50930.93
682.95	50734.08
683.15	50773.81
683.34	50516.92
683.54	50629.39
683.73	50672.48
683.93	50080.95
684.12	50522.41
684.32	50658.56
684.51	50109.70
684.71	50430.08
684.90	50360.45
685.10	50312.94
685.29	50203.91
685.49	50260.35
685.68	50279.35
685.88	50135.91
686.07	49978.38
686.27	50400.35
686.46	50231.51
686.66	49847.64
686.85	50251.25
687.05	49806.19
687.24	49693.63
687.44	50081.60
687.63	49909.82
687.83	49330.82
688.02	49799.80
688.22	50017.30
688.41	49665.21
688.61	49803.81
688.80	49947.58
689.00	49524.88
689.19	49385.62
689.39	50023.77
689.58	49873.86
689.77	49878.69
689.97	50014.51
690.16	49694.04
690.36	49329.67
690.55	49168.37
690.75	50017.54
690.94	49445.17
691.14	49825.93
691.33	49262.17
691.53	49701.25
691.72	49404.62
691.91	49458.04
692.11	49363.67
692.30	49615.73
692.50	49414.21
692.69	49207.77
692.89	49446.40
693.08	49244.88
693.28	49096.61
693.47	49322.87
693.66	49100.46
693.86	48963.16
694.05	48759.76
694.25	48860.68
694.44	48948.34
694.64	48810.80
694.83	48747.47
695.02	48698.81
695.22	49024.28
695.41	48686.52
695.61	48593.96
695.80	48500.16
695.99	48441.26
696.19	48620.17
696.38	48684.89
696.58	48299.70
696.77	48963.90
696.96	48802.19
697.16	48598.54
697.35	48488.12
697.55	48397.68
697.74	48253.42
697.93	48767.62
698.13	48217.95
698.32	48619.11
698.52	48298.56
698.71	47764.45
698.90	48718.31
699.10	48143.16
699.29	48112.36
699.49	48466.08
699.68	47988.17
699.87	47890.03
700.07	48323.22
700.26	47928.53
700.45	47955.56
700.65	47782.80
700.84	48363.68
701.04	47883.64
701.23	48281.93
701.42	47952.12
701.62	47944.91
701.81	47900.19
702.00	47828.02
702.20	47326.26
702.39	47647.22
702.58	47827.12
702.78	47449.31
702.97	47452.26
703.17	47641.08
703.36	47591.11
703.55	47192.00
703.75	47287.84
703.94	47431.61
704.13	47075.92
704.33	46934.04
704.52	47569.56
704.71	47294.64
704.91	47214.77
705.10	46828.53
705.29	46985.32
705.49	47153.99
705.68	47032.34
705.87	47140.31
706.07	46612.92
706.26	47163.16
706.45	46533.78
706.65	46480.04
706.84	46950.01
707.03	47289.89
707.23	46417.13
707.42	46423.44
707.61	46877.60
707.80	46584.00
708.00	46667.80
708.19	46599.07
708.38	47091.89
708.58	46258.62
708.77	46914.87
708.96	46438.92
709.16	46186.20
709.35	46941.57
709.54	46419.75
709.74	46314.24
709.93	45801.76
710.12	46653.06
710.31	46881.20
710.51	46402.79
710.70	46360.11
710.89	46402.22
711.09	45816.99
711.28	45694.11
711.47	45958.88
711.66	45766.04
711.86	45644.88
712.05	45826.74
712.24	46135.25
712.43	45762.27
712.63	45260.60
712.82	45921.11
713.01	45697.97
713.21	45293.78
713.40	45436.40
713.59	45811.59
713.78	45055.15
713.98	45677.49
714.17	45232.42
714.36	45363.98
714.55	44867.64
714.75	45013.45
714.94	45170.16
715.13	45373.24
715.32	44840.93
715.52	45229.64
715.71	44830.53
715.90	44933.91
716.09	44751.97
716.29	45168.44
716.48	45022.63
716.67	44308.46
716.86	44784.41
717.06	44610.99
717.25	44680.53
717.44	44781.13
717.63	44823.73
717.82	44238.50
718.02	44465.91
718.21	44682.99
718.40	44793.17
718.59	44563.31
718.79	44179.44
718.98	44184.11
719.17	44436.99
719.36	44521.20
719.55	44212.70
719.75	44123.90
719.94	44093.01
720.13	44493.92
720.32	44236.21
720.51	44077.78
720.71	44070.40
720.90	43590.77
721.09	43847.99
721.28	43687.84
721.47	44157.48
721.67	43956.78
721.86	43858.23
722.05	43708.73
722.24	43179.86
722.43	43834.72
722.63	43328.87
722.82	43436.19
723.01	43454.70
723.20	43172.25
723.39	43188.88
723.58	43591.26
723.78	43002.18
723.97	43688.91
724.16	43038.39
724.35	43173.07
724.54	42857.68
724.73	43188.06
724.93	42810.57
725.12	43161.43
725.31	42433.83
725.50	42992.60
725.69	43118.59
725.88	42801.24
726.08	42377.06
726.27	43043.22
726.46	42105.09
726.65	43131.61
726.84	42275.56
727.03	42535.57
727.23	42741.85
727.42	42256.64
727.61	42161.37
727.80	42065.85
727.99	42073.14
728.18	42198.31
728.37	42046.68
728.56	41808.87
728.76	41833.69
728.95	42015.23
729.14	41950.18
729.33	41777.91
729.52	41830.74
729.71	41951.25
729.90	41835.50
730.09	41581.71
730.29	41843.44
730.48	41252.64
730.67	41699.59
730.86	41210.29
731.05	41502.74
731.24	41160.98
731.43	41207.59
731.62	40928.33
731.81	40880.57
732.01	41362.42
732.20	40782.43
732.39	41246.66
732.58	40976.91
732.77	40480.81
732.96	40918.99
733.15	41099.13
733.34	40725.50
733.53	40965.52
733.72	40837.81
733.92	40938.98
734.11	40651.77
734.30	40917.92
734.49	40937.26
734.68	40651.77
734.87	40534.13
735.06	40643.58
735.25	40622.93
735.44	40361.94
735.63	40559.69
735.82	40677.08
736.01	40180.90
736.20	40430.18
736.40	40474.33
736.59	40451.07
736.78	40513.90
736.97	40222.43
737.16	40115.78
737.35	40348.26
737.54	40215.14
737.73	40138.22
737.92	40209.49
738.11	40386.11
738.30	39981.43
738.49	40088.09
738.68	39861.91
738.87	40140.19
739.06	39818.00
739.25	39994.13
739.44	39807.11
739.63	39649.17
739.82	39365.24
740.01	39902.05
740.20	39523.67
740.39	39656.62
740.59	39578.31
740.78	39772.21
740.97	39449.78
741.16	39436.75
741.35	39562.91
741.54	39418.48
741.73	39450.19
741.92	39283.97
742.11	39051.81
742.30	39420.20
742.49	38705.46
742.68	39278.07
742.87	38958.84
743.06	38707.76
743.25	38993.08
743.44	38813.76
743.63	39064.92
743.82	38698.83
744.01	38727.01
744.20	38510.09
744.39	38777.71
744.58	38904.44
744.77	38604.70
744.96	38399.09
745.15	38701.78
745.34	38675.48
745.53	38531.55
745.72	38469.37
745.91	38327.16
746.10	38091.15
746.29	38381.56
746.48	38292.26
746.67	38097.46
746.86	38274.57
747.04	38146.94
747.23	37903.15
747.42	38147.02
747.61	37868.17
747.80	38251.96
747.99	37564.66
748.18	37956.32
748.37	38088.86
748.56	37276.72
748.75	37787.81
748.94	37659.28
749.13	37804.85
749.32	37295.15
749.51	37643.96
749.70	37619.63
749.89	37588.83
750.08	37430.32
750.27	37130.00
750.46	37281.88
750.65	37724.57
750.84	37027.03
751.02	37455.05
751.21	37063.48
751.40	37231.74
751.59	37063.07
751.78	37099.77
751.97	36992.54
752.16	36713.61
752.35	37035.96
752.54	36609.90
752.73	37030.47
752.92	36736.38
753.11	36609.82
753.30	36837.14
753.49	36997.62
753.67	36743.59
753.86	36365.94
754.05	36908.08
754.24	36550.84
754.43	36580.74
754.62	36610.55
754.81	36561.32
755.00	36535.19
755.19	36621.29
755.38	36022.30
755.56	36569.92
755.75	36688.05
755.94	36312.53
756.13	36175.81
756.32	36347.35
756.51	35954.88
756.70	36194.24
756.89	35912.03
757.08	35980.11
757.26	35939.15
757.45	35998.70
757.64	35527.75
757.83	36059.08
758.02	35628.76
758.21	35792.02
758.40	35673.57
758.59	35763.76
758.77	35364.32
758.96	35633.67
759.15	35634.16
759.34	35379.97
759.53	35436.90
759.72	35483.11
759.91	34962.19
760.09	35308.05
760.28	35260.86
760.47	34923.36
760.66	35362.52
760.85	35008.22
761.04	35290.76
761.23	35302.07
761.41	35072.37
761.60	35385.30
761.79	34947.36
761.98	34961.94
762.17	35180.01
762.36	34913.28
762.54	34942.12
762.73	34911.81
762.92	34507.70
763.11	35064.42
763.30	34814.49
763.49	34914.02
763.67	34654.91
763.86	34779.26
764.05	34849.87
764.24	34722.65
764.43	34898.12
764.61	34555.62
764.80	34526.38
764.99	35129.22
765.18	34466.41
765.37	34737.97
765.55	34770.17
765.74	34598.55
765.93	34242.20
766.12	34625.58
766.31	34410.79
766.49	34564.80
766.68	34527.93
766.87	34439.95
767.06	34086.97
767.25	34495.08
767.43	34397.03
767.62	34396.86
767.81	34248.18
768.00	34226.47
768.19	33764.21
768.37	34152.66
768.56	34014.39
768.75	34293.32
768.94	34218.44
769.12	34065.17
769.31	33802.71
769.50	33963.43
769.69	33988.01
769.88	33620.36
770.06	34170.44
770.25	33841.86
770.44	33688.27
770.63	34038.22
770.81	33734.63
771.00	33763.30
771.19	33771.91
771.38	33776.98
771.56	33914.20
771.75	33355.76
771.94	33539.67
772.13	33704.32
772.31	33168.66
772.50	33713.66
772.69	33241.73
772.88	33892.00
773.06	33239.11
773.25	33607.82
773.44	33504.52
773.62	33513.37
773.81	33411.55
774.00	33332.25
774.19	33207.32
774.37	33340.77
774.56	33593.49
774.75	33114.02
774.94	33298.25
775.12	33162.68
775.31	33286.46
775.50	33353.63
775.68	33101.40
775.87	33138.26
776.06	32887.18
776.25	33366.33
776.43	32985.90
776.62	33349.94
776.81	32705.65
776.99	33160.22
777.18	32943.71
777.37	32706.47
777.55	32757.01
777.74	33020.96
777.93	32745.71
778.12	32959.76
778.30	32484.06
778.49	32716.22
778.68	32689.76
778.86	32795.93
779.05	32734.32
779.24	32934.70
779.42	32505.61
779.61	32405.91
779.80	32508.31
779.98	32714.83
780.17	32584.99
780.36	32369.05
780.54	32592.85
780.73	32098.96
780.92	32497.25
781.10	32366.75
781.29	32269.35
781.48	32243.71
781.66	32199.15
781.85	32535.42
782.04	32218.40
782.22	32466.12
782.41	32083.64
782.60	32366.92
782.78	32128.70
782.97	32481.36
783.16	31885.48
783.34	32110.51
783.53	32142.13
783.71	32121.90
783.90	32129.60
784.09	32160.97
784.27	32101.50
784.46	32065.29
784.65	31999.18
784.83	31981.33
785.02	31764.24
785.20	32281.72
785.39	31436.48
785.58	32155.16
785.76	31702.06
785.95	31771.04
786.14	31715.58
786.32	31880.40
786.51	31654.80
786.69	31935.29
786.88	31627.76
787.07	31673.80
787.25	31508.65
787.44	31732.54
787.62	31492.43
787.81	31869.67
788.00	31665.28
788.18	31727.13
788.37	31535.03
788.55	32142.87
788.74	31558.30
788.93	31883.68
789.11	32046.37
789.30	31880.24
789.48	31636.45
789.67	32091.18
789.86	31672.57
790.04	32068.90
790.23	31709.60
790.41	31924.31
790.60	31950.03
790.78	32062.02
790.97	31537.90
791.16	32053.00
791.34	32233.55
791.53	31769.32
791.71	32090.69
791.90	32064.06
792.08	31998.20
792.27	32278.85
792.46	32042.44
792.64	32344.64
792.83	32029.17
793.01	32311.70
793.20	32151.14
793.38	32283.52
793.57	32133.61
793.75	32419.92
793.94	32288.68
794.12	32739.24
794.31	32101.83
794.50	32510.03
794.68	32519.70
794.87	32416.07
795.05	32509.87
795.24	32514.78
795.42	32324.32
795.61	32940.76
795.79	32749.48
795.98	32468.09
796.16	32664.45
796.35	32910.45
796.53	32634.63
796.72	33169.64
796.90	32942.15
797.09	33113.28
797.27	32770.94
797.46	32844.09
797.64	32926.26
797.83	32886.04
798.01	32803.95
798.20	33084.94
798.38	32708.27
798.57	33091.24
798.75	32751.94
798.94	32506.51
799.12	33326.51
799.31	33074.04
799.49	32978.52
799.68	32927.57
799.86	32777.58
800.05	32966.97
800.23	32789.04
800.42	32803.46
800.60	33068.06
800.79	32996.63
800.97	32889.80
801.16	33372.31
801.34	32702.54
801.53	32832.63
801.71	32926.18
801.90	32819.68
802.08	32860.23
802.27	32949.93
802.45	32608.58
802.64	32960.58
802.82	33057.41
803.00	32658.14
803.19	32733.26
803.37	33302.27
803.56	32645.11
803.74	33007.03
803.93	32904.39
804.11	33073.79
804.30	32654.70
804.48	33149.57
804.67	33124.17
804.85	33141.21
805.03	33302.27
805.22	32937.24
805.40	32705.41
805.59	33175.29
805.77	33110.90
805.96	33015.71
806.14	32858.68
806.32	33171.36
806.51	33351.33
806.69	33181.60
806.88	32936.09
807.06	32948.95
807.25	32865.23
807.43	33046.92
807.61	32782.16
807.80	32798.30
807.98	32876.86
808.17	32695.98
808.35	32357.01
808.53	32933.71
808.72	32621.28
808.90	32795.27
809.09	32702.29
809.27	32997.53
809.45	32438.84
809.64	32990.97
809.82	32535.51
810.01	32739.81
810.19	32697.95
810.37	32602.68
810.56	32416.64
810.74	32798.14
810.93	32270.74
811.11	32544.19
811.29	32337.43
811.48	32581.13
811.66	32408.04
811.84	32452.69
812.03	32184.24
812.21	32355.78
812.40	32391.41
812.58	32683.12
812.76	32206.52
812.95	32678.21
813.13	32009.83
813.31	32488.57
813.50	32347.99
813.68	32361.18
813.86	32338.08
814.05	32503.56
814.23	31928.57
814.42	32317.27
814.60	31919.89
814.78	32326.20
814.97	32027.94
815.15	32142.54
815.33	32074.14
815.52	31980.02
815.70	31873.44
815.88	32190.22
816.07	31694.12
816.25	32209.31
816.43	31830.35
816.62	31567.23
816.80	31842.64
816.98	31854.19
817.17	31680.52
817.35	31890.56
817.53	31730.82
817.72	32076.52
817.90	31332.37
818.08	31711.16
818.26	31741.63
818.45	31611.13
818.63	31696.58
818.81	31798.24
819.00	31090.62
819.18	31711.08
819.36	31429.36
819.55	31595.98
819.73	31238.49
819.91	31707.72
820.09	31219.73
820.28	31631.45
820.46	31222.59
820.64	31807.17
820.83	31191.38
821.01	31453.11
821.19	31191.96
821.38	31525.20
821.56	31252.49
821.74	31522.66
821.92	31078.99
822.11	31445.50
822.29	30812.10
822.47	31048.11
822.65	31024.27
822.84	31304.19
823.02	30769.34
823.20	31513.73
823.39	30854.62
823.57	31097.91
823.75	30976.18
823.93	30980.69
824.12	30946.53
824.30	30915.40
824.48	30729.20
824.66	31089.23
824.85	30239.82
825.03	30934.16
825.21	30919.41
825.39	30908.85
825.58	30828.24
825.76	30850.68
825.94	30798.75
826.12	30913.51
826.31	30492.78
826.49	30677.67
826.67	30725.76
826.85	30542.67
827.03	30625.73
827.22	30966.52
827.40	30467.06
827.58	30560.53
827.76	30713.96
827.95	30486.64
828.13	30431.01
828.31	30569.29
828.49	30505.72
828.67	30461.98
828.86	30175.67
829.04	30436.42
829.22	30162.73
829.40	30210.73
829.58	30031.33
829.77	30213.85
829.95	30171.00
830.13	30225.97
830.31	30081.47
830.49	30388.58
830.68	30191.81
830.86	30265.46
831.04	29984.06
831.22	30216.14
831.40	29987.91
831.59	30272.91
831.77	29763.79
831.95	30165.84
832.13	29724.30
832.31	30031.74
832.50	29727.58
832.68	29711.77
832.86	29588.15
833.04	29998.48
833.22	29295.54
833.40	30110.87
833.59	29500.83
833.77	29973.09
833.95	29025.53
834.13	30304.53
834.31	29648.85
834.49	29751.09
834.67	29529.33
834.86	29755.02
835.04	29450.77
835.22	29708.74
835.40	29373.28
835.58	29416.86
835.76	29242.04
835.95	29376.56
836.13	29122.69
836.31	29187.73
836.49	29276.45
836.67	29479.85
836.85	29195.92
837.03	29192.32
837.21	29141.04
837.40	29060.92
837.58	28596.44
837.76	29060.10
837.94	28945.91
838.12	29376.31
838.30	28881.27
838.48	29143.66
838.66	28898.07
838.85	29027.25
839.03	28916.83
839.21	28966.31
839.39	28709.25
839.57	28930.92
839.75	28645.27
839.93	28862.27
840.11	28730.30
840.29	28874.64
840.47	28690.90
840.66	28937.80
840.84	28569.16
841.02	28604.14
841.20	28450.38
841.38	28705.97
841.56	28473.65
841.74	28993.99
841.92	28528.53
842.10	28580.80
842.28	28619.05
842.46	28575.72
842.65	28339.14
842.83	28654.85
843.01	28676.40
843.19	28496.50
843.37	28519.03
843.55	28408.77
843.73	28427.85
843.91	28626.02
844.09	28127.21
844.27	28693.35
844.45	28175.13
844.63	28307.93
844.81	28140.65
844.99	28322.51
845.17	28098.30
845.35	28399.59
845.54	27983.85
845.72	28206.59
845.90	28128.11
846.08	28310.14
846.26	27787.90
846.44	28335.20
846.62	27739.00
846.80	27967.63
846.98	27845.90
847.16	27910.78
847.34	27827.64
847.52	27997.94
847.70	27590.89
847.88	27990.00
848.06	27558.53
848.24	27936.01
848.42	27633.00
848.60	27513.07
848.78	27525.44
848.96	27607.85
849.14	27310.81
849.32	27640.94
849.50	27205.54
849.68	27649.38
849.86	27368.40
850.04	27312.28
850.22	26999.36
850.40	27105.77
850.58	27045.64
850.76	27690.34
850.94	26598.61
851.12	27181.54
851.30	26886.31
851.48	27229.14
851.66	26725.75
851.84	26909.33
852.02	26746.64
852.20	27230.04
852.38	26635.06
852.56	27144.52
852.74	26996.65
852.92	27021.31
853.10	26660.70
853.28	27134.93
853.46	26473.93
853.64	27047.03
853.82	26620.89
854.00	26933.66
854.18	26466.56
854.36	26583.29
854.54	26638.26
854.72	26542.90
854.90	26236.86
855.07	26619.25
855.25	26341.88
855.43	26591.24
855.61	26219.41
855.79	26374.48
855.97	26266.10
856.15	26425.02
856.33	26016.90
856.51	26504.57
856.69	25856.59
856.87	26341.22
857.05	25861.26
857.23	26342.45
857.41	25711.02
857.59	25951.86
857.77	25730.27
857.94	25916.63
858.12	25979.38
858.30	25868.55
858.48	25558.98
858.66	25683.49
858.84	25751.24
859.02	25492.46
859.20	25378.76
859.38	25884.85
859.56	25494.51
859.74	25656.30
859.92	25495.65
860.09	25456.58
860.27	25508.93
860.45	25404.89
860.63	25213.36
860.81	25612.96
860.99	25250.23
861.17	25078.36
861.35	24439.72
861.53	24512.55
861.70	24361.08
861.88	25248.34
862.06	24975.39
862.24	24686.71
862.42	24535.65
862.60	25138.41
862.78	24925.25
862.96	25125.63
863.14	24840.55
863.31	24971.37
863.49	24575.54
863.67	24857.43
863.85	24639.93
864.03	25014.14
864.21	24790.01
864.39	24982.27
864.56	24539.99
864.74	24924.60
864.92	24581.36
865.10	24554.82
865.28	24443.74
865.46	24883.56
865.64	24121.30
865.81	24522.95
865.99	23974.67
866.17	24521.31
866.35	24106.23
866.53	24332.65
866.71	24169.14
866.88	24414.25
867.06	24003.67
867.24	24262.78
867.42	24010.63
867.60	24308.90
867.78	23897.83
867.95	24314.96
868.13	23877.10
868.31	24216.74
868.49	23959.43
868.67	24052.25
868.84	23768.23
869.02	23958.69
869.20	23301.95
869.38	23931.66
869.56	23484.30
869.73	23619.06
869.91	23513.38
870.09	23709.01
870.27	23293.19
870.45	23654.37
870.62	23181.12
870.80	23668.46
870.98	23309.98
871.16	23417.54
871.34	23121.32
871.51	23424.67
871.69	22996.80
871.87	23305.80
872.05	23107.07
872.23	23305.47
872.40	22811.42
872.58	23284.75
872.76	22711.89
872.94	22910.79
873.11	22838.05
873.29	22676.50
873.47	22667.82
873.65	22747.12
873.83	22510.62
874.00	22772.51
874.18	22563.21
874.36	22662.74
874.54	22581.23
874.71	22623.26
874.89	22281.24
875.07	22697.88
875.25	22426.00
875.42	22683.14
875.60	22353.99
875.78	22840.42
875.96	22326.71
876.13	22759.98
876.31	22174.01
876.49	22426.49
876.66	22090.37
876.84	22683.88
877.02	22094.39
877.20	22428.70
877.37	22188.02
877.55	22435.58
877.73	22019.19
877.91	22121.50
878.08	22169.10
878.26	22219.72
878.44	21992.32
878.61	22209.24
878.79	21867.64
878.97	22049.58
879.15	21982.08
879.32	22219.31
879.50	21957.34
879.68	22341.62
879.85	21737.88
880.03	22156.24
880.21	21786.70
880.38	22176.72
880.56	21706.99
880.74	22317.78
880.92	21717.81
881.09	22240.29
881.27	21800.63
881.45	22002.80
881.62	21730.67
881.80	21888.20
881.98	21759.50
882.15	22137.56
882.33	21776.54
882.51	22136.08
882.68	21642.93
882.86	22175.98
883.04	21671.36
883.21	21891.39
883.39	21891.31
883.57	21806.53
883.74	21760.81
883.92	21996.66
884.10	21847.24
884.27	21924.16
884.45	21580.35
884.63	22021.97
884.80	21688.15
884.98	21906.71
885.16	21645.47
885.33	21679.55
885.51	21732.14
885.69	21977.74
885.86	21754.67
886.04	22058.02
886.21	21584.69
886.39	22077.02
886.57	21373.09
886.74	21979.62
886.92	21595.83
887.10	21942.84
887.27	21739.68
887.45	21967.00
887.62	21648.18
887.80	21965.86
887.98	22021.32
888.15	22106.27
888.33	21772.20
888.51	22159.60
888.68	21767.20
888.86	22059.57
889.03	21769.91
889.21	22064.08
889.39	21991.01
889.56	22167.05
889.74	21889.10
889.91	22183.60
890.09	21899.99
890.27	22017.22
890.44	21857.81
890.62	22155.34
890.79	22024.18
890.97	22210.22
891.14	21867.80
891.32	22126.66
891.50	21806.69
891.67	22194.66
891.85	22056.21
892.02	22133.79
892.20	22210.47
892.38	22226.52
892.55	21959.39
892.73	22233.57
892.90	21988.55
893.08	22310.90
893.25	21991.50
893.43	22490.96
893.60	22010.91
893.78	22375.21
893.96	22073.17
894.13	22285.50
894.31	22286.57
894.48	22184.83
894.66	22048.51
894.83	22278.46
895.01	21999.94
895.18	22299.51
895.36	21921.13
895.53	22245.53
895.71	22003.38
895.89	22111.10
896.06	21799.64
896.24	22017.38
896.41	21724.93
896.59	22049.91
896.76	21506.21
896.94	21942.35
897.11	21846.01
897.29	21854.53
897.46	21562.49
897.64	21930.80
897.81	21719.61
897.99	21671.44
898.16	21822.83
898.34	21902.86
898.51	21683.65
898.69	21730.34
898.86	21654.98
899.04	21847.24
899.21	21442.72
899.39	21802.02
899.56	21366.79
899.74	21783.10
899.91	21458.53
900.09	21553.07
900.26	21425.69
900.44	21409.55
900.61	21345.57
900.79	21747.46
900.96	21292.40
901.14	21431.42
901.31	21174.28
901.49	21359.74
901.66	21300.76
901.84	21331.81
902.01	21031.16
902.19	21240.30
902.36	20867.25
902.54	21232.28
902.71	20953.67
902.88	21222.44
903.06	20749.61
903.23	21279.79
903.41	20929.34
903.58	21026.00
903.76	20623.95
903.93	21021.66
904.11	20952.60
904.28	20843.90
904.45	20660.97
904.63	20754.77
904.80	20293.40
904.98	20743.30
905.15	20315.28
905.33	20649.10
905.50	20326.09
905.68	20531.54
905.85	20221.56
906.02	20246.55
906.20	20275.96
906.37	20078.37
906.55	19837.85
906.72	20259.00
906.90	19926.90
907.07	19900.93
907.24	19924.44
907.42	19796.16
907.59	19699.49
907.77	19655.34
907.94	19470.28
908.11	19796.40
908.29	19529.84
908.46	19543.77
908.64	19163.25
908.81	19481.34
908.98	19096.82
909.16	19415.73
909.33	19032.59
909.51	19033.49
909.68	18909.71
909.85	19006.54
910.03	18832.30
910.20	18737.60
910.37	18653.47
910.55	18739.32
910.72	18638.89
910.90	18544.11
911.07	18451.05
911.24	18417.63
911.42	18428.03
911.59	18295.32
911.76	18173.02
911.94	18161.63
912.11	17989.52
912.29	18157.05
912.46	17695.68
912.63	18032.45
912.81	17591.89
912.98	17875.49
913.15	17584.35
913.33	17835.27
913.50	17558.06
913.67	17591.56
913.85	17310.09
914.02	17648.82
914.19	17298.13
914.37	17376.52
914.54	17316.89
914.71	17215.31
914.89	17122.58
915.06	17268.55
915.23	17013.30
915.41	17083.91
915.58	16893.28
915.75	16977.33
915.93	16800.47
916.10	16936.46
916.27	16658.51
916.45	16849.21
916.62	16490.98
916.79	16855.36
916.97	16484.84
917.14	16686.44
917.31	16324.69
917.49	16479.43
917.66	16373.84
917.83	16354.59
918.00	16128.66
918.18	16200.50
918.35	15941.88
918.52	16198.04
918.70	15757.73
918.87	15960.72
919.04	15725.29
919.21	15863.24
919.39	15550.23
919.56	15829.24
919.73	15362.88
919.91	15601.51
920.08	15421.86
920.25	15461.75
920.42	15461.67
920.60	15383.60
920.77	15087.96
920.94	15397.61
921.11	15058.30
921.29	15285.55
921.46	14861.37
921.63	15255.65
921.81	14871.37
921.98	14906.92
922.15	14757.17
922.32	14989.74
922.50	14664.36
922.67	14771.75
922.84	14610.62
923.01	14485.20
923.19	14409.43
923.36	14558.35
923.53	14128.69
923.70	14428.35
923.87	14043.58
924.05	14301.46
924.22	13938.88
924.39	14114.52
924.56	13673.47
924.74	13968.13
924.91	13819.61
925.08	13806.91
925.25	13677.97
925.43	13822.72
925.60	13419.27
925.77	13814.78
925.94	13522.57
926.11	13575.33
926.29	13301.56
926.46	13548.54
926.63	13189.74
926.80	13366.11
926.97	13059.41
927.15	13234.96
927.32	12870.91
927.49	12880.82
927.66	12702.98
927.83	12922.76
928.01	12609.34
928.18	12762.12
928.35	12437.23
928.52	12775.80
928.69	12390.87
928.87	12574.45
929.04	12301.74
929.21	12481.96
929.38	12253.08
929.55	12477.37
929.72	12120.86
929.90	12294.61
930.07	12136.51
930.24	12056.06
930.41	11968.74
930.58	12093.34
930.75	11924.83
930.93	11945.23
931.10	11843.57
931.27	11923.44
931.44	11721.92
931.61	11764.43
931.78	11642.95
931.95	11780.90
932.13	11412.84
932.30	11709.14
932.47	11279.56
932.64	11573.89
932.81	11303.23
932.98	11451.59
933.15	11313.55
933.33	11329.04
933.50	11216.64
933.67	11227.87
933.84	11058.46
934.01	11279.15
934.18	11039.21
934.35	11152.99
934.52	10884.54
934.70	11194.44
934.87	10867.10
935.04	10973.59
935.21	10821.79
935.38	10943.85
935.55	10694.00
935.72	10934.19
935.89	10577.19
936.06	10785.26
936.24	10454.96
936.41	10716.77
936.58	10345.76
936.75	10528.36
936.92	10300.63
937.09	10478.80
937.26	10165.79
937.43	10358.13
937.60	10156.70
937.77	10211.75
937.94	10096.73
938.12	10263.60
938.29	9913.89
938.46	10095.42
938.63	9828.78
938.80	10081.17
938.97	9780.20
939.14	9900.13
939.31	9651.59
939.48	9913.97
939.65	9529.61
939.82	9735.55
939.99	9573.19
940.16	9767.34
940.33	9444.66
940.50	9557.79
940.67	9332.35
940.85	9495.37
941.02	9268.62
941.19	9413.61
941.36	9202.92
941.53	9387.64
941.70	9181.54
941.87	9148.60
942.04	9028.10
942.21	9239.29
942.38	8982.88
942.55	9051.69
942.72	8886.38
942.89	9004.92
943.06	8725.82
943.23	8865.66
943.40	8695.76
943.57	8814.87
943.74	8665.53
943.91	8762.19
944.08	8535.52
944.25	8757.11
944.42	8395.20
944.59	8573.37
944.76	8361.77
944.93	8635.55
945.10	8288.38
945.27	8458.52
945.44	8125.44
945.61	8387.42
945.78	8139.37
945.95	8262.08
946.12	7996.01
946.29	8295.26
946.46	8058.35
946.63	8098.73
946.80	8027.38
946.97	8180.98
947.14	7825.04
947.31	8112.66
947.48	7899.02
947.65	7978.97
947.82	7834.38
947.99	7981.34
948.16	7683.16
948.33	8017.88
948.50	7638.60
948.67	7688.07
948.84	7565.11
949.01	7678.00
949.18	7433.88
949.35	7746.97
949.52	7345.00
949.68	7618.44
949.85	7372.85
950.02	7471.07
950.19	7272.99
950.36	7459.03
950.53	7197.55
950.70	7251.37
950.87	7071.96
951.04	7307.89
951.21	6918.86
951.38	7175.18
951.55	7006.26
951.72	7142.41
951.89	6956.62
952.06	7154.29
952.23	6910.34
952.39	6987.34
952.56	6751.66
952.73	6956.46
952.90	6735.44
953.07	7036.00
953.24	6683.67
953.41	6917.14
953.58	6591.59
953.75	6877.00
953.92	6565.21
954.09	6726.51
954.25	6526.06
954.42	6708.33
954.59	6402.36
954.76	6533.27
954.93	6320.28
955.10	6577.75
955.27	6256.30
955.44	6454.95
955.61	6222.22
955.77	6406.13
955.94	6172.17
956.11	6352.88
956.28	6132.36
956.45	6269.49
956.62	6052.73
956.79	6256.54
956.96	6067.72
957.12	6202.72
957.29	5978.51
957.46	6168.97
957.63	5926.33
957.80	6047.82
957.97	5832.62
958.14	6081.57
958.30	5712.60
958.47	5977.28
958.64	5716.04
958.81	5947.55
958.98	5660.01
959.15	5811.64
959.32	5568.84
959.48	5790.10
959.65	5585.38
959.82	5728.99
959.99	5477.09
960.16	5707.93
960.33	5538.36
960.49	5608.32
960.66	5378.38
960.83	5600.05
961.00	5340.12
961.17	5545.24
961.33	5251.81
961.50	5404.67
961.67	5185.13
961.84	5427.20
962.01	5122.54
962.18	5345.69
962.34	5130.08
962.51	5270.00
962.68	5042.84
962.85	5242.55
963.02	5000.07
963.18	5172.02
963.35	4943.14
963.52	5134.59
963.69	4988.61
963.86	5129.42
964.02	4785.94
964.19	5060.29
964.36	4824.93
964.53	4991.88
964.69	4688.87
964.86	4985.66
965.03	4712.87
965.20	4855.98
965.37	4624.97
965.53	4761.53
965.70	4658.88
965.87	4808.30
966.04	4572.13
966.20	4733.76
966.37	4598.84
966.54	4653.23
966.71	4565.58
966.87	4646.51
967.04	4523.31
967.21	4612.35
967.38	4470.22
967.54	4571.56
967.71	4385.93
967.88	4546.08
968.05	4411.24
968.21	4426.73
968.38	4305.32
968.55	4443.27
968.72	4250.60
968.88	4374.13
969.05	4253.14
969.22	4334.32
969.39	4148.86
969.55	4296.80
969.72	4122.48
969.89	4218.16
970.05	4060.63
970.22	4235.20
970.39	4052.77
970.56	4156.72
970.72	4017.62
970.89	4144.19
971.06	3983.87
971.22	4121.91
971.39	3941.44
971.56	4060.06
971.73	3949.22
971.89	4089.88
972.06	3935.79
972.23	4068.33
972.39	3887.04
972.56	4036.96
972.73	3831.59
972.89	3959.13
973.06	3891.96
973.23	3958.56
973.39	3817.58
973.56	3918.50
973.73	3796.85
973.89	3888.85
974.06	3749.83
974.23	3855.67
974.39	3744.67
974.56	3820.69
974.73	3687.16
974.89	3740.16
975.06	3659.06
975.23	3755.97
975.39	3614.58
975.56	3712.56
975.73	3626.46
975.89	3667.99
976.06	3593.28
976.23	3614.99
976.39	3577.23
976.56	3628.35
976.73	3535.45
976.89	3573.79
977.06	3537.74
977.23	3583.13
977.39	3518.90
977.56	3565.10
977.72	3465.25
977.89	3543.81
978.06	3469.75
978.22	3513.74
978.39	3452.79
978.56	3531.76
978.72	3406.26
978.89	3492.20
979.05	3411.67
979.22	3467.87
979.39	3418.72
979.55	3445.50
979.72	3374.40
979.88	3454.51
980.05	3366.70
980.22	3422.07
980.38	3369.07
980.55	3407.16
980.71	3345.23
980.88	3401.76
981.05	3337.86
981.21	3372.43
981.38	3325.98
981.54	3361.13
981.71	3316.56
981.88	3345.07
982.04	3318.28
982.21	3334.18
982.37	3285.27
982.54	3332.54
982.70	3283.96
982.87	3300.01
983.04	3250.13
983.20	3308.45
983.37	3250.45
983.53	3290.92
983.70	3247.75
983.86	3289.69
984.03	3246.52
984.20	3269.38
984.36	3227.93
984.53	3267.17
984.69	3216.95
984.86	3231.04
985.02	3231.12
985.19	3250.04
985.35	3217.28
985.52	3241.61
985.68	3192.78
985.85	3213.26
986.02	3192.05
986.18	3228.58
986.35	3197.53
986.51	3209.74
986.68	3203.68
986.84	3200.32
987.01	3179.84
987.17	3205.15
987.34	3172.80
987.50	3194.59
987.67	3177.46
987.83	3201.22
988.00	3172.88
988.16	3184.51
988.33	3166.82
988.49	3198.60
988.66	3149.28
988.82	3180.09
988.99	3154.04
989.15	3158.46
989.32	3153.79
989.48	3174.27
989.65	3146.25
989.81	3155.43
989.98	3151.58
990.14	3158.30
990.31	3145.35
990.47	3154.04
990.64	3137.57
990.80	3155.18
990.97	3137.98
991.13	3180.09
991.30	3134.70
991.46	3131.51
991.63	3123.97
991.79	3139.78
991.95	3117.83
992.12	3135.36
992.28	3114.06
992.45	3135.19
992.61	3113.90
992.78	3121.27
992.94	3134.46
993.11	3129.05
993.27	3123.48
993.44	3105.54
993.60	3108.41
993.76	3106.28
993.93	3082.36
994.09	3131.59
994.26	3116.76
994.42	3123.23
994.59	3102.92
994.75	3122.99
994.91	3106.52
995.08	3110.37
995.24	3089.24
995.41	3125.69
995.57	3108.41
995.74	3096.12
995.90	3079.33
996.06	3098.17
996.23	3089.16
996.39	3094.56
996.56	3098.41
996.72	3104.80
996.88	3097.43
997.05	3100.22
997.21	3108.16
997.38	3100.46
997.54	3088.42
997.70	3097.43
997.87	3083.09
998.03	3098.41
998.20	3080.80
998.36	3097.18
998.52	3089.16
998.69	3123.97
998.85	3096.53
999.02	3100.13
999.18	3087.19
999.34	3088.34
999.51	3074.41
999.67	3106.11
999.83	3083.34
1000.00	3108.33
1000.16	3076.79
1000.33	3095.30
1000.49	3093.33
1000.65	3100.62
1000.82	3095.30
1000.98	3082.68
1001.14	3078.83
1001.31	3101.20
1001.47	3084.73
1001.63	3091.78
1001.80	3072.36
1001.96	3072.61
1002.12	3090.06
1002.29	3075.64
1002.45	3073.26
1002.61	3099.81
1002.78	3082.03
1002.94	3096.04
1003.10	3076.70
1003.27	3102.02
1003.43	3079.74
1003.59	3096.53
1003.76	3088.99
1003.92	3076.21
1004.08	3067.12
1004.25	3075.97
1004.41	3084.90
1004.57	3099.15
1004.74	3065.24
1004.90	3080.47
1005.06	3069.09
1005.23	3088.01
1005.39	3073.10
1005.55	3089.81
1005.71	3078.59
1005.88	3083.26
1006.04	3083.26
1006.20	3089.57
1006.37	3085.39
1006.53	3077.36
1006.69	3069.17
1006.85	3082.11
1007.02	3081.54
1007.18	3090.14
1007.34	3058.76
1007.51	3081.05
1007.67	3070.40
1007.83	3083.18
1007.99	3064.74
1008.16	3079.41
1008.32	3081.37
1008.48	3085.55
1008.64	3055.49
1008.81	3072.44
1008.97	3080.47
1009.13	3082.52
1009.29	3073.35
1009.46	3088.34
1009.62	3072.12
1009.78	3082.44
1009.95	3067.37
1010.11	3074.90
1010.27	3078.42
1010.43	3061.47
1010.59	3084.49
1010.76	3058.52
1010.92	3061.55
1011.08	3092.11
1011.24	3076.13
1011.41	3086.04
1011.57	3066.63
1011.73	3086.21
1011.89	3075.89
1012.06	3086.86
1012.22	3066.87
1012.38	3085.31
1012.54	3058.19
1012.70	3061.30
1012.87	3070.07
1013.03	3075.72
1013.19	3081.70
1013.35	3076.79
1013.51	3072.12
1013.68	3093.42
1013.84	3066.79
1014.00	3073.76
1014.16	3062.20
1014.32	3061.88
1014.49	3064.50
1014.65	3079.41
1014.81	3053.36
1014.97	3076.13
1015.13	3070.40
1015.30	3076.13
1015.46	3075.56
1015.62	3084.49
1015.78	3063.76
1015.94	3069.41
1016.10	3074.57
1016.27	3075.72
1016.43	3086.53
1016.59	3065.07
1016.75	3066.14
1016.91	3078.67
1017.07	3072.28
1017.24	3089.24
1017.40	3076.87
1017.56	3071.95
1017.72	3059.09
1017.88	3062.78
1018.04	3056.80
1018.21	3069.50
1018.37	3046.07
1018.53	3074.41
1018.69	3059.99
1018.85	3066.55
1019.01	3082.68
1019.17	3075.23
1019.34	3075.15
1019.50	3058.60
1019.66	3059.42
1019.82	3070.97
1019.98	3066.30
1020.14	3079.16
1020.30	3069.91
1020.46	3067.53
1020.63	3066.22
1020.79	3065.73
1020.95	3057.04
1021.11	3073.59
1021.27	3068.51
1021.43	3071.79
1021.59	3064.66
1021.75	3067.61
1021.91	3055.08
1022.07	3065.48
1022.24	3059.50
1022.40	3070.31
1022.56	3086.29
1022.72	3087.85
1022.88	3059.75
1023.04	3078.18
1023.20	3078.10
1023.36	3071.71
1023.52	3070.31
1023.68	3086.29
1023.84	3060.40
1024.01	3070.89
1024.17	3063.76
1024.33	3058.93
1024.49	3060.81
1024.65	3069.99
1024.81	3075.89
1024.97	3070.81
1025.13	3074.98
1025.29	3072.53
1025.45	3065.24
1025.61	3065.24
1025.77	3061.88
1025.93	3072.12
1026.09	3073.59
1026.25	3079.16
1026.41	3052.05
1026.57	3079.74
1026.73	3074.16
1026.90	3066.38
1027.06	3065.56
1027.22	3070.48
1027.38	3062.61
1027.54	3073.84
1027.70	3069.91
1027.86	3068.35
1028.02	3067.45
1028.18	3065.73
1028.34	3047.30
1028.50	3070.31
1028.66	3071.22
1028.82	3063.19
1028.98	3056.72
1029.14	3082.03
1029.30	3068.18
1029.46	3062.29
1029.62	3056.06
1029.78	3080.39
1029.94	3052.21
1030.10	3077.44
1030.26	3048.77
1030.42	3072.36
1030.58	3071.38
1030.74	3077.93
1030.90	3069.00
1031.06	3074.82
1031.22	3058.27
1031.38	3067.69
1031.54	3070.31
1031.70	3088.91
1031.86	3073.18
1032.02	3060.24
1032.18	3067.28
1032.34	3063.76
1032.50	3050.49
1032.66	3079.98
1032.82	3068.43
1032.98	3070.15
1033.14	3067.12
1033.30	3068.43
1033.45	3072.85
1033.61	3079.74
1033.77	3071.30
1033.93	3069.17
1034.09	3058.19
1034.25	3070.97
1034.41	3048.44
1034.57	3060.16
1034.73	3062.12
1034.89	3071.30
1035.05	3058.76
1035.21	3086.37
1035.37	3057.29
1035.53	3081.21
1035.69	3062.61
1035.85	3082.68
1036.01	3067.12
1036.16	3077.77
1036.32	3067.45
1036.48	3062.61
1036.64	3068.92
1036.80	3071.79
1036.96	3058.93
1037.12	3065.73
1037.28	3078.42
1037.44	3078.59
1037.60	3063.35
1037.76	3056.22
1037.91	3049.43
1038.07	3069.66
1038.23	3069.99
1038.39	3079.74
1038.55	3055.49
1038.71	3068.84
1038.87	3072.85
1039.03	3080.80
1039.19	3072.61
1039.35	3074.57
1039.50	3072.28
1039.66	3076.95
1039.82	3062.94
1039.98	3076.95
1040.14	3060.81
1040.30	3062.70
1040.46	3081.05
1040.62	3077.28
1040.77	3058.76
1040.93	3073.76
1041.09	3064.33
1041.25	3056.96
1041.41	3070.81
1041.57	3070.89
1041.73	3070.89
1041.88	3070.89

