SpectraSuite Data File
++++++++++++++++++++++++++++++++++++
Date: Tue Sep 13 12:50:13 EDT 2022
User: Laboratoire
Dark Spectrum Present: No
Reference Spectrum Present: No
Number of Sampled Component Spectra: 1
Spectrometers: FLMT00174
Integration Time (usec): 12000 (FLMT00174)
Spectra Averaged: 25 (FLMT00174)
Boxcar Smoothing: 0 (FLMT00174)
Correct for Electrical Dark: No (FLMT00174)
Strobe/Lamp Enabled: No (FLMT00174)
Correct for Detector Non-linearity: No (FLMT00174)
Correct for Stray Light: No (FLMT00174)
Number of Pixels in Processed Spectrum: 3648
>>>>>Begin Processed Spectral Data<<<<<
345.74	3143.96
345.96	3143.96
346.18	3143.96
346.39	3146.17
346.61	3162.23
346.83	3174.84
347.05	3177.79
347.27	3179.10
347.49	3170.17
347.71	3203.60
347.93	3195.16
348.15	3189.83
348.36	3174.11
348.58	3198.19
348.80	3182.79
349.02	3193.85
349.24	3198.93
349.46	3306.73
349.68	3326.15
349.90	3332.86
350.11	3351.95
350.33	3337.12
350.55	3332.13
350.77	3339.01
350.99	3314.02
351.21	3340.24
351.43	3325.57
351.65	3337.45
351.86	3310.50
352.08	3335.24
352.30	3322.05
352.52	3332.86
352.74	3314.60
352.96	3334.91
353.18	3329.18
353.39	3360.06
353.61	3331.47
353.83	3367.43
354.05	3366.94
354.27	3353.67
354.49	3359.24
354.70	3338.27
354.92	3337.70
355.14	3333.44
355.36	3337.78
355.58	3335.40
355.80	3335.57
356.02	3344.99
356.23	3335.57
356.45	3343.43
356.67	3334.50
356.89	3365.22
357.11	3334.58
357.33	3354.65
357.54	3337.04
357.76	3349.58
357.98	3333.03
358.20	3358.59
358.42	3344.41
358.63	3349.90
358.85	3355.88
359.07	3339.09
359.29	3334.75
359.51	3357.36
359.73	3343.68
359.94	3358.91
360.16	3343.43
360.38	3359.49
360.60	3336.71
360.82	3358.83
361.03	3366.37
361.25	3363.26
361.47	3353.43
361.69	3368.50
361.91	3339.34
362.12	3351.62
362.34	3352.93
362.56	3377.26
362.78	3348.84
363.00	3364.98
363.21	3367.27
363.43	3384.88
363.65	3347.77
363.87	3362.36
364.09	3370.71
364.30	3363.26
364.52	3377.51
364.74	3366.12
364.96	3368.99
365.17	3376.45
365.39	3387.91
365.61	3356.54
365.83	3364.24
366.05	3359.32
366.26	3360.31
366.48	3368.34
366.70	3401.92
366.92	3396.68
367.13	3388.81
367.35	3369.89
367.57	3369.48
367.79	3388.73
368.01	3383.08
368.22	3408.64
368.44	3382.10
368.66	3389.47
368.88	3378.58
369.09	3384.15
369.31	3373.82
369.53	3392.09
369.75	3381.28
369.96	3401.84
370.18	3393.57
370.40	3401.59
370.62	3391.85
370.83	3376.45
371.05	3407.98
371.27	3404.87
371.49	3396.68
371.70	3416.34
371.92	3414.37
372.14	3406.10
372.36	3390.45
372.57	3426.74
372.79	3410.03
373.01	3408.80
373.22	3401.35
373.44	3412.08
373.66	3412.49
373.88	3402.99
374.09	3376.28
374.31	3403.81
374.53	3368.09
374.75	3393.40
374.96	3421.09
375.18	3437.47
375.40	3417.49
375.61	3410.03
375.83	3401.10
376.05	3403.31
376.27	3411.18
376.48	3398.97
376.70	3392.42
376.92	3417.40
377.13	3415.03
377.35	3409.05
377.57	3414.70
377.79	3423.88
378.00	3411.59
378.22	3436.25
378.44	3424.29
378.65	3448.62
378.87	3421.50
379.09	3442.55
379.30	3422.73
379.52	3450.99
379.74	3437.72
379.96	3438.21
380.17	3414.54
380.39	3441.32
380.61	3435.51
380.82	3435.92
381.04	3451.24
381.26	3467.62
381.47	3466.39
381.69	3487.28
381.91	3483.68
382.12	3490.97
382.34	3499.49
382.56	3496.78
382.77	3482.78
382.99	3492.61
383.21	3490.48
383.42	3518.25
383.64	3501.70
383.86	3491.79
384.07	3522.34
384.29	3521.85
384.51	3501.94
384.72	3519.48
384.94	3519.31
385.16	3524.14
385.37	3519.97
385.59	3523.41
385.81	3540.94
386.02	3543.64
386.24	3546.10
386.46	3533.16
386.67	3566.58
386.89	3573.95
387.11	3572.56
387.32	3567.40
387.54	3589.02
387.76	3577.39
387.97	3605.16
388.19	3617.61
388.40	3587.30
388.62	3605.41
388.84	3623.10
389.05	3622.12
389.27	3630.97
389.49	3639.57
389.70	3626.95
389.92	3645.47
390.14	3656.03
390.35	3665.04
390.57	3648.42
390.78	3683.80
391.00	3672.50
391.22	3700.19
391.43	3691.26
391.65	3694.54
391.86	3702.81
392.08	3746.14
392.30	3725.99
392.51	3743.11
392.73	3767.36
392.95	3744.92
393.16	3748.19
393.38	3780.80
393.59	3780.80
393.81	3804.22
394.03	3782.02
394.24	3781.45
394.46	3788.66
394.67	3810.45
394.89	3793.41
395.11	3825.69
395.32	3837.57
395.54	3847.15
395.75	3832.57
395.97	3832.32
396.19	3824.38
396.40	3864.35
396.62	3866.40
396.83	3873.28
397.05	3886.88
397.26	3900.48
397.48	3891.55
397.70	3885.49
397.91	3923.91
398.13	3882.62
398.34	3912.93
398.56	3930.46
398.78	3911.05
398.99	3950.12
399.21	3918.01
399.42	3941.68
399.64	3946.35
399.85	3939.64
400.07	3942.67
400.29	3988.79
400.50	3953.56
400.72	3998.45
400.93	3964.38
401.15	3974.53
401.36	3981.91
401.58	3993.95
401.79	3984.45
402.01	4014.84
402.23	4011.97
402.44	4012.46
402.66	4013.85
402.87	4020.65
403.09	4026.06
403.30	4044.00
403.52	4020.65
403.73	4032.53
403.95	4021.39
404.16	4046.29
404.38	4056.12
404.60	4039.41
404.81	4053.83
405.03	4073.49
405.24	4077.26
405.46	4087.66
405.67	4089.22
405.89	4122.81
406.10	4085.45
406.32	4114.70
406.53	4127.48
406.75	4134.11
406.96	4137.06
407.18	4128.87
407.39	4122.32
407.61	4128.87
407.82	4146.40
408.04	4176.87
408.25	4160.16
408.47	4176.79
408.68	4196.86
408.90	4152.22
409.12	4214.56
409.33	4218.32
409.55	4192.27
409.76	4199.48
409.98	4213.57
410.19	4204.15
410.41	4249.29
410.62	4250.27
410.84	4225.78
411.05	4242.65
411.27	4282.63
411.48	4267.31
411.70	4287.87
411.91	4282.96
412.12	4295.33
412.34	4276.16
412.55	4312.37
412.77	4313.02
412.98	4334.16
413.20	4329.82
413.41	4328.91
413.63	4328.18
413.84	4357.18
414.06	4386.91
414.27	4376.35
414.49	4402.81
414.70	4392.81
414.92	4423.86
415.13	4412.47
415.35	4427.71
415.56	4421.48
415.78	4428.94
415.99	4464.33
416.21	4492.18
416.42	4502.25
416.63	4497.01
416.85	4530.11
417.06	4501.35
417.28	4484.31
417.49	4569.26
417.71	4540.43
417.92	4547.39
418.14	4555.99
418.35	4594.74
418.57	4607.27
418.78	4611.86
418.99	4601.70
419.21	4641.93
419.42	4686.74
419.64	4646.76
419.85	4653.80
420.07	4720.98
420.28	4720.73
420.50	4669.61
420.71	4716.14
420.92	4736.62
421.14	4769.88
421.35	4758.41
421.57	4761.04
421.78	4777.26
422.00	4811.50
422.21	4835.01
422.42	4840.01
422.64	4826.33
422.85	4898.74
423.07	4908.82
423.28	4880.31
423.50	4916.44
423.71	4974.84
423.92	4989.26
424.14	4979.51
424.35	5011.63
424.57	4998.76
424.78	5056.03
424.99	5085.43
425.21	5107.72
425.42	5122.79
425.64	5093.87
425.85	5132.54
426.06	5131.23
426.28	5148.92
426.49	5207.90
426.71	5169.40
426.92	5211.26
427.13	5246.90
427.35	5322.51
427.56	5304.24
427.78	5313.74
427.99	5355.77
428.20	5382.06
428.42	5396.48
428.63	5455.79
428.84	5353.06
429.06	5427.85
429.27	5462.01
429.49	5473.65
429.70	5554.50
429.91	5508.22
430.13	5559.09
430.34	5575.31
430.56	5583.66
430.77	5646.09
430.98	5594.56
431.20	5671.40
431.41	5700.73
431.62	5715.88
431.84	5680.74
432.05	5735.21
432.26	5763.39
432.48	5708.75
432.69	5813.45
432.91	5816.56
433.12	5827.04
433.33	5840.72
433.55	5923.22
433.76	5942.96
433.97	5899.95
434.19	5921.09
434.40	5991.37
434.61	5993.99
434.83	5994.73
435.04	5987.61
435.25	6050.60
435.47	6068.38
435.68	5994.40
435.89	6101.55
436.11	6104.67
436.32	6130.55
436.53	6159.31
436.75	6087.63
436.96	6168.15
437.17	6120.64
437.39	6146.45
437.60	6189.21
437.81	6211.41
438.03	6227.55
438.24	6232.54
438.45	6311.43
438.67	6283.25
438.88	6334.78
439.09	6381.39
439.31	6349.36
439.52	6392.20
439.73	6354.27
439.94	6299.14
440.16	6384.34
440.37	6339.77
440.58	6424.72
440.80	6443.81
441.01	6381.96
441.22	6546.37
441.44	6522.37
441.65	6477.89
441.86	6505.99
442.08	6520.73
442.29	6513.28
442.50	6592.49
442.71	6534.82
442.93	6584.55
443.14	6573.24
443.35	6624.11
443.57	6540.39
443.78	6636.40
443.99	6662.21
444.20	6577.99
444.42	6663.19
444.63	6679.08
444.84	6715.86
445.06	6750.35
445.27	6673.51
445.48	6673.59
445.69	6716.93
445.91	6721.02
446.12	6649.26
446.33	6733.48
446.54	6815.56
446.76	6720.61
446.97	6785.00
447.18	6762.72
447.39	6809.74
447.61	6834.32
447.82	6846.85
448.03	6809.41
448.25	6891.41
448.46	6892.40
448.67	6909.76
448.88	6841.12
449.10	6935.49
449.31	6960.47
449.52	6906.98
449.73	6920.82
449.95	7010.44
450.16	6893.79
450.37	7040.26
450.58	7132.67
450.79	6937.13
451.01	7052.71
451.22	6962.44
451.43	7047.39
451.64	7093.92
451.86	7073.11
452.07	7105.63
452.28	7121.20
452.49	7232.03
452.71	7105.47
452.92	7116.53
453.13	7159.04
453.34	7173.05
453.55	7223.76
453.77	7262.42
453.98	7244.16
454.19	7187.39
454.40	7227.12
454.62	7269.47
454.83	7216.47
455.04	7334.02
455.25	7241.13
455.46	7476.31
455.68	7335.82
455.89	7338.45
456.10	7367.94
456.31	7384.40
456.52	7425.69
456.74	7412.42
456.95	7520.39
457.16	7445.92
457.37	7522.93
457.58	7492.37
457.80	7460.91
458.01	7470.91
458.22	7720.76
458.43	7538.65
458.64	7580.43
458.86	7497.04
459.07	7595.26
459.28	7552.50
459.49	7668.82
459.70	7804.15
459.91	7726.74
460.13	7691.68
460.34	7751.81
460.55	7692.99
460.76	7802.19
460.97	7803.33
461.19	7743.70
461.40	7949.15
461.61	7854.86
461.82	7857.07
462.03	7898.52
462.24	7895.98
462.46	7882.47
462.67	7899.83
462.88	7967.42
463.09	7976.02
463.30	8061.71
463.51	7970.78
463.72	8148.54
463.94	8116.26
464.15	8110.69
464.36	8094.56
464.57	8256.02
464.78	8224.56
464.99	8233.41
465.20	8181.88
465.42	8301.24
465.63	8318.93
465.84	8305.17
466.05	8397.49
466.26	8356.94
466.47	8488.58
466.68	8392.74
466.90	8516.44
467.11	8463.19
467.32	8541.34
467.53	8670.77
467.74	8525.12
467.95	8597.21
468.16	8677.57
468.37	8747.78
468.59	8718.12
468.80	8848.70
469.01	8737.86
469.22	8839.69
469.43	9017.94
469.64	8939.22
469.85	9026.87
470.06	9043.34
470.28	9163.10
470.49	8974.61
470.70	9143.20
470.91	9269.93
471.12	9169.90
471.33	9388.87
471.54	9274.10
471.75	9290.57
471.96	9499.95
472.17	9424.42
472.39	9637.58
472.60	9475.87
472.81	9680.42
473.02	9616.61
473.23	9771.76
473.44	9781.02
473.65	9792.81
473.86	9880.06
474.07	9922.82
474.28	9954.77
474.49	10134.25
474.71	10107.63
474.92	10216.82
475.13	10174.80
475.34	10208.80
475.55	10248.69
475.76	10321.76
475.97	10522.55
476.18	10495.35
476.39	10589.06
476.60	10736.11
476.81	10689.00
477.02	10833.10
477.23	10803.12
477.44	10848.58
477.65	10989.56
477.87	11120.14
478.08	11108.51
478.29	11164.30
478.50	11382.61
478.71	11337.47
478.92	11439.38
479.13	11457.89
479.34	11494.68
479.55	11591.26
479.76	11586.67
479.97	11638.11
480.18	11910.25
480.39	11786.96
480.60	12004.05
480.81	12072.78
481.02	12127.50
481.23	12154.37
481.44	12334.51
481.65	12383.90
481.86	12527.34
482.07	12318.29
482.28	12797.51
482.49	12639.74
482.71	12729.76
482.92	12864.60
483.13	12988.38
483.34	12905.89
483.55	13016.73
483.76	13035.98
483.97	13220.95
484.18	13230.21
484.39	13332.93
484.60	13276.82
484.81	13589.67
485.02	13464.41
485.23	13689.52
485.44	13766.77
485.65	13866.47
485.86	13806.01
486.07	14017.69
486.28	13952.24
486.49	14149.25
486.70	14184.56
486.91	14347.17
487.12	14308.75
487.33	14345.69
487.54	14579.33
487.75	14628.23
487.96	14649.86
488.17	14605.38
488.38	14773.64
488.59	14788.96
488.80	14915.93
489.01	14880.95
489.22	15167.09
489.43	15140.06
489.64	15070.18
489.85	15452.99
490.06	15190.03
490.26	15445.94
490.47	15443.16
490.68	15594.46
490.89	15777.80
491.10	15563.09
491.31	15773.05
491.52	15945.40
491.73	15854.15
491.94	15830.72
492.15	15992.18
492.36	16081.47
492.57	16051.73
492.78	16123.90
492.99	16167.07
493.20	16316.09
493.41	16314.53
493.62	16367.69
493.83	16351.80
494.04	16437.16
494.25	16625.41
494.46	16638.84
494.67	16509.09
494.88	16719.04
495.08	16707.49
495.29	16849.29
495.50	16969.06
495.71	16852.16
495.92	17048.11
496.13	17042.54
496.34	16967.09
496.55	17057.61
496.76	17297.72
496.97	17037.05
497.18	17320.74
497.39	17223.09
497.60	17484.66
497.81	17260.20
498.02	17449.43
498.22	17257.41
498.43	17607.78
498.64	17559.20
498.85	17544.21
499.06	17621.21
499.27	17811.27
499.48	17457.79
499.69	17648.74
499.90	17722.71
500.11	17800.62
500.32	17986.90
500.52	17828.71
500.73	18055.47
500.94	18100.69
501.15	18075.37
501.36	18121.66
501.57	18028.19
501.78	18128.78
501.99	18303.19
502.20	18302.78
502.41	18333.33
502.61	18308.92
502.82	18451.38
503.03	18362.50
503.24	18535.43
503.45	18378.88
503.66	18606.04
503.87	18554.68
504.08	18757.18
504.28	18625.70
504.49	18682.64
504.70	18729.49
504.91	18832.96
505.12	18637.66
505.33	18911.84
505.54	18886.45
505.75	18848.93
505.95	18958.78
506.16	18883.50
506.37	18908.32
506.58	19138.35
506.79	18973.37
507.00	19201.35
507.21	18982.21
507.41	19095.92
507.62	19144.90
507.83	19375.34
508.04	19095.18
508.25	19459.06
508.46	19232.64
508.67	19525.01
508.87	19339.05
509.08	19542.21
509.29	19400.33
509.50	19609.22
509.71	19621.10
509.92	19784.52
510.12	19589.80
510.33	19732.02
510.54	19698.92
510.75	19804.68
510.96	19952.05
511.17	19987.19
511.37	19966.14
511.58	20007.10
511.79	19900.52
512.00	19917.72
512.21	20130.80
512.42	20172.57
512.62	20187.97
512.83	20320.52
513.04	20227.54
513.25	20435.53
513.46	20071.32
513.66	20563.49
513.87	20410.22
514.08	20574.22
514.29	20460.44
514.50	20500.17
514.71	20719.46
514.91	20620.42
515.12	20622.47
515.33	20802.69
515.54	20739.37
515.75	21005.03
515.95	20795.65
516.16	20889.94
516.37	21024.77
516.58	21094.49
516.78	20955.64
516.99	21079.91
517.20	21115.79
517.41	21143.72
517.62	21235.39
517.82	21199.92
518.03	21507.28
518.24	21666.44
518.45	21330.25
518.66	21621.39
518.86	21471.07
519.07	21721.25
519.28	21403.32
519.49	21835.20
519.69	21880.25
519.90	21877.71
520.11	21919.00
520.32	21903.93
520.52	22065.14
520.73	21880.99
520.94	22166.80
521.15	22093.49
521.36	21919.66
521.56	22365.05
521.77	22013.37
521.98	22415.10
522.19	22169.84
522.39	22390.77
522.60	22255.69
522.81	22414.61
523.02	22308.69
523.22	22613.75
523.43	22640.62
523.64	22574.60
523.84	22705.09
524.05	22818.88
524.26	22765.14
524.47	22746.13
524.67	22780.38
524.88	22922.91
525.09	23083.23
525.30	22905.14
525.50	22977.64
525.71	23056.52
525.92	23082.25
526.13	23271.15
526.33	23151.06
526.54	23048.33
526.75	23226.34
526.95	23439.82
527.16	23152.86
527.37	23548.86
527.58	23598.01
527.78	23485.20
527.99	23655.27
528.20	23749.72
528.40	23607.43
528.61	23549.35
528.82	23805.26
529.03	23755.04
529.23	23752.01
529.44	23967.62
529.65	23975.73
529.85	24077.15
530.06	23998.10
530.27	24095.42
530.47	23809.03
530.68	24348.14
530.89	23930.43
531.09	24238.12
531.30	24172.50
531.51	24032.26
531.72	24358.87
531.92	24323.40
532.13	24523.93
532.34	24419.24
532.54	24414.49
532.75	24537.78
532.96	24533.52
533.16	24636.98
533.37	24750.28
533.58	24682.61
533.78	24766.99
533.99	24850.54
534.20	24592.34
534.40	24773.13
534.61	24891.50
534.82	24952.21
535.02	25005.13
535.23	24993.33
535.44	25082.54
535.64	25005.86
535.85	25109.24
536.06	25150.29
536.26	25086.31
536.47	25113.83
536.68	25427.42
536.88	25089.17
537.09	25385.80
537.29	25106.38
537.50	25568.73
537.71	25340.25
537.91	25448.22
538.12	25658.75
538.33	25455.02
538.53	25669.08
538.74	25665.80
538.95	25714.05
539.15	25642.53
539.36	25805.47
539.56	26033.45
539.77	25653.43
539.98	25769.43
540.18	25847.74
540.39	25788.43
540.60	25935.07
540.80	26034.43
541.01	26053.28
541.21	26064.83
541.42	26183.94
541.63	26136.83
541.83	26349.41
542.04	26300.67
542.25	26167.80
542.45	26318.12
542.66	26257.50
542.86	26426.42
543.07	25973.32
543.28	26527.42
543.48	26379.64
543.69	26572.48
543.89	26458.36
544.10	26812.58
544.31	26676.10
544.51	26606.55
544.72	26738.20
544.92	26628.67
545.13	26871.32
545.33	26848.46
545.54	26721.00
545.75	26939.96
545.95	26848.95
546.16	26852.31
546.36	27144.92
546.57	26646.29
546.78	26294.28
546.98	26667.01
547.19	26163.62
547.39	26898.27
547.60	27068.33
547.80	27350.62
548.01	27422.87
548.22	27167.04
548.42	27337.02
548.63	27457.61
548.83	27323.75
549.04	27539.53
549.24	27409.69
549.45	27494.80
549.65	27733.27
549.86	27387.08
550.07	27482.02
550.27	27709.84
550.48	27763.90
550.68	27690.42
550.89	27731.30
551.09	27852.38
551.30	27758.50
551.50	27913.81
551.71	27839.92
551.91	27847.38
552.12	27990.74
552.33	28151.05
552.53	27801.75
552.74	28174.56
552.94	28204.13
553.15	28039.31
553.35	28302.35
553.56	28088.63
553.76	28367.73
553.97	28134.83
554.17	28340.86
554.38	28732.35
554.58	28321.28
554.79	28675.33
554.99	28406.47
555.20	28467.09
555.40	28724.32
555.61	28622.74
555.81	28493.88
556.02	28996.78
556.22	28904.38
556.43	28796.00
556.63	28951.48
556.84	28828.52
557.04	29224.92
557.25	28788.87
557.45	29120.48
557.66	29104.42
557.86	28888.48
558.07	29330.68
558.27	29063.38
558.48	29225.42
558.68	29176.10
558.89	29281.78
559.09	29353.13
559.30	29259.66
559.50	29466.83
559.71	29290.87
559.91	29778.61
560.12	29488.29
560.32	29588.81
560.53	29731.43
560.73	29599.70
560.94	29806.96
561.14	29567.51
561.35	29969.48
561.55	29809.25
561.76	30015.93
561.96	29669.99
562.17	29949.90
562.37	30130.37
562.57	29949.50
562.78	30016.42
562.98	30221.22
563.19	30214.99
563.39	30333.37
563.60	30440.43
563.80	30154.78
564.01	30592.97
564.21	30349.91
564.42	30325.09
564.62	30498.19
564.82	30699.79
565.03	30542.75
565.23	30612.87
565.44	30691.43
565.64	30657.03
565.85	30868.13
566.05	30789.49
566.25	30991.99
566.46	30753.94
566.66	30977.49
566.87	30897.05
567.07	31029.35
567.28	31075.88
567.48	31300.25
567.68	30904.42
567.89	31511.11
568.09	31232.34
568.30	31266.83
568.50	31553.05
568.71	31493.58
568.91	31699.03
569.11	31469.50
569.32	31622.52
569.52	31723.45
569.73	31456.47
569.93	31796.27
570.13	31782.26
570.34	31719.43
570.54	32021.14
570.75	31896.95
570.95	31960.44
571.15	31875.81
571.36	32262.96
571.56	31890.97
571.77	31927.42
571.97	31778.09
572.17	32298.19
572.38	32260.34
572.58	32386.33
572.79	32367.90
572.99	32333.33
573.19	32345.54
573.40	32379.86
573.60	32496.35
573.81	32443.27
574.01	32686.07
574.21	32699.59
574.42	32808.21
574.62	32602.19
574.82	32950.18
575.03	32752.51
575.23	33089.60
575.43	32866.79
575.64	32867.77
575.84	33268.35
576.05	32929.54
576.25	33131.55
576.45	33126.71
576.66	33557.77
576.86	33292.93
577.06	33445.71
577.27	33416.54
577.47	33454.06
577.67	33454.14
577.88	33159.89
578.08	33742.01
578.28	33825.81
578.49	33707.27
578.69	33809.92
578.89	33731.11
579.10	33858.17
579.30	34270.95
579.50	33960.73
579.71	33856.04
579.91	34283.65
580.11	34177.24
580.32	34092.62
580.52	34160.61
580.72	34496.48
580.93	34064.03
581.13	34259.49
581.33	34649.83
581.54	34476.82
581.74	34372.45
581.94	34598.96
582.15	34850.28
582.35	34650.89
582.55	34820.14
582.76	34733.30
582.96	35231.29
583.16	34993.81
583.37	35110.70
583.57	35025.51
583.77	35406.76
583.97	34745.26
584.18	35456.89
584.38	35271.35
584.58	35096.37
584.79	35449.68
584.99	35422.65
585.19	35400.61
585.40	35403.07
585.60	35787.93
585.80	35469.67
586.00	35838.55
586.21	35755.32
586.41	35854.61
586.61	36080.05
586.82	36039.91
587.02	35848.14
587.22	36246.26
587.42	35793.99
587.63	36264.28
587.83	35857.72
588.03	36141.90
588.23	35939.48
588.44	36213.41
588.64	36078.66
588.84	36193.59
589.05	36404.36
589.25	36494.31
589.45	36529.62
589.65	36440.57
589.86	36672.81
590.06	36776.85
590.26	36783.40
590.46	37071.67
590.67	36657.49
590.87	37188.25
591.07	37202.42
591.27	36765.63
591.48	37239.20
591.68	36910.54
591.88	37501.91
592.08	36972.88
592.29	37370.76
592.49	37363.06
592.69	37634.70
592.89	37474.22
593.10	37547.46
593.30	37416.39
593.50	37955.33
593.70	37248.46
593.90	37945.09
594.11	37805.50
594.31	37877.02
594.51	38096.64
594.71	38098.36
594.92	38024.80
595.12	38032.99
595.32	38138.26
595.52	38328.47
595.72	37823.20
595.93	38485.10
596.13	38306.44
596.33	38131.54
596.53	38568.58
596.73	38437.92
596.94	38484.69
597.14	38908.70
597.34	38706.69
597.54	38920.83
597.74	38687.52
597.95	38885.77
598.15	38916.49
598.35	39061.81
598.55	39194.76
598.75	39043.05
598.96	39414.22
599.16	39100.88
599.36	39302.49
599.56	39331.57
599.76	39244.41
599.97	39802.76
600.17	39552.91
600.37	39879.85
600.57	39185.42
600.77	39858.22
600.97	39547.67
601.18	40172.05
601.38	39845.20
601.58	40108.73
601.78	39997.57
601.98	39807.11
602.18	40228.50
602.39	40503.42
602.59	40300.01
602.79	40267.73
602.99	40411.50
603.19	40438.13
603.39	40241.28
603.60	40357.76
603.80	40390.12
604.00	40384.39
604.20	40429.52
604.40	40749.25
604.60	40471.79
604.80	40615.73
605.01	40892.53
605.21	40761.87
605.41	40843.79
605.61	40695.92
605.81	41209.96
606.01	41301.88
606.21	40826.01
606.42	41272.06
606.62	41118.46
606.82	41497.01
607.02	41252.89
607.22	41426.56
607.42	41603.58
607.62	41174.49
607.82	41461.46
608.03	41459.73
608.23	41475.63
608.43	41307.78
608.63	41703.03
608.83	41757.43
609.03	41830.58
609.23	41829.11
609.43	41984.75
609.63	41779.63
609.84	41714.83
610.04	42272.04
610.24	42230.59
610.44	42264.50
610.64	42013.01
610.84	42319.88
611.04	42768.39
611.24	42567.85
611.44	42022.52
611.64	42653.54
611.85	42587.67
612.05	42582.43
612.25	42741.93
612.45	42508.13
612.65	42709.16
612.85	42702.11
613.05	42529.76
613.25	42997.68
613.45	42774.69
613.65	42818.85
613.85	42501.99
614.05	42910.19
614.25	43258.92
614.46	43140.63
614.66	43152.09
614.86	43059.12
615.06	43291.60
615.26	43648.93
615.46	43017.91
615.66	43574.96
615.86	43526.71
616.06	43250.64
616.26	43290.95
616.46	43821.04
616.66	43453.72
616.86	43936.71
617.06	43595.44
617.26	43933.84
617.46	43851.60
617.66	43631.40
617.86	43527.86
618.07	43892.97
618.27	43831.86
618.47	43994.46
618.67	44096.37
618.87	44273.15
619.07	44093.50
619.27	44076.96
619.47	44183.78
619.67	44687.74
619.87	44218.18
620.07	44464.10
620.27	44390.95
620.47	43991.60
620.67	44317.63
620.87	44241.94
621.07	44398.08
621.27	44352.70
621.47	44080.32
621.67	44585.18
621.87	44433.14
622.07	44963.32
622.27	44948.82
622.47	44697.25
622.67	44864.69
622.87	44426.83
623.07	44945.95
623.27	45235.94
623.47	44450.83
623.67	44840.60
623.87	45121.26
624.07	44986.34
624.27	44680.78
624.47	44947.67
624.67	44967.91
624.87	45120.85
625.07	44864.44
625.27	45313.93
625.47	45178.03
625.67	45035.82
625.87	45294.43
626.07	45156.40
626.27	45318.60
626.47	45330.97
626.67	45317.86
626.87	45063.67
627.07	45524.22
627.27	45451.96
627.47	45625.96
627.67	45453.77
627.87	45325.07
628.07	45528.80
628.27	45374.30
628.47	45199.57
628.67	45655.86
628.86	45738.92
629.06	45482.03
629.26	45329.58
629.46	45827.64
629.66	45687.23
629.86	45214.40
630.06	45649.88
630.26	45537.65
630.46	46008.03
630.66	45639.56
630.86	45879.58
631.06	45965.51
631.26	45743.10
631.46	46238.47
631.66	46208.16
631.86	45799.79
632.06	46127.79
632.26	45953.06
632.45	45932.50
632.65	46075.36
632.85	46279.34
633.05	46262.06
633.25	46442.44
633.45	46110.43
633.65	46102.97
633.85	46661.98
634.05	45847.71
634.25	46223.15
634.45	46235.93
634.65	46458.42
634.84	46154.17
635.04	46429.75
635.24	46227.90
635.44	46576.63
635.64	46364.21
635.84	46747.84
636.04	46485.61
636.24	46442.03
636.44	46516.50
636.64	46028.34
636.84	46896.19
637.03	46365.85
637.23	46705.07
637.43	46697.37
637.63	46451.62
637.83	46755.45
638.03	46601.94
638.23	46262.79
638.43	46749.97
638.62	47034.22
638.82	46184.23
639.02	46883.17
639.22	46636.84
639.42	46854.41
639.62	46444.98
639.82	46534.19
640.02	46617.50
640.21	46747.51
640.41	46073.97
640.61	46558.85
640.81	46287.37
641.01	46305.06
641.21	46279.67
641.41	46964.59
641.61	46467.67
641.80	46589.73
642.00	46917.90
642.20	46953.45
642.40	46324.97
642.60	46710.64
642.80	46925.44
642.99	46423.44
643.19	46895.62
643.39	46419.42
643.59	46929.20
643.79	46674.44
643.99	47069.12
644.19	46970.49
644.38	46642.08
644.58	46872.52
644.78	46721.21
644.98	46745.79
645.18	46920.03
645.38	47152.35
645.57	46703.35
645.77	46807.31
645.97	46627.42
646.17	46939.69
646.37	46786.75
646.56	46491.68
646.76	46714.99
646.96	46767.91
647.16	46642.41
647.36	46954.68
647.55	46859.49
647.75	47222.80
647.95	46825.74
648.15	47083.29
648.35	46885.30
648.55	47066.58
648.74	46889.88
648.94	46953.86
649.14	47258.52
649.34	46771.67
649.54	46714.66
649.73	46827.46
649.93	46439.08
650.13	46744.48
650.33	46549.35
650.52	46872.84
650.72	47158.41
650.92	46690.49
651.12	46446.37
651.32	46721.21
651.51	46839.67
651.71	46835.08
651.91	46766.27
652.11	46586.46
652.30	46500.69
652.50	47046.76
652.70	46889.96
652.90	46590.14
653.10	46787.98
653.29	46618.24
653.49	47045.20
653.69	46506.50
653.89	46576.54
654.08	46455.14
654.28	46896.03
654.48	46680.74
654.68	46966.07
654.87	46672.63
655.07	46329.23
655.27	46810.26
655.47	46439.58
655.66	46550.41
655.86	46436.87
656.06	47057.98
656.26	46202.01
656.45	46785.35
656.65	46567.53
656.85	46315.71
657.04	46110.51
657.24	46172.85
657.44	46090.36
657.64	46548.94
657.83	45816.91
658.03	46463.50
658.23	46465.71
658.43	46246.98
658.62	46455.39
658.82	46204.96
659.02	46356.59
659.21	46287.78
659.41	45999.10
659.61	46472.67
659.81	46163.10
660.00	46036.54
660.20	46172.52
660.40	45934.05
660.59	46106.25
660.79	45812.24
660.99	46216.51
661.19	46294.58
661.38	46285.57
661.58	45635.95
661.78	46043.83
661.97	45893.51
662.17	46356.43
662.37	45768.42
662.56	45848.29
662.76	45793.73
662.96	46077.41
663.15	46198.00
663.35	46042.43
663.55	45781.11
663.74	45440.74
663.94	45957.65
664.14	45441.15
664.33	45786.44
664.53	45594.34
664.73	46163.02
664.93	45506.60
665.12	45854.68
665.32	45641.69
665.52	45816.75
665.71	45623.34
665.91	45985.34
666.10	45669.29
666.30	46049.15
666.50	45533.96
666.69	45557.31
666.89	45948.06
667.09	46073.97
667.28	45652.01
667.48	45486.94
667.68	45523.89
667.87	45418.46
668.07	45293.37
668.27	45617.85
668.46	45649.39
668.66	45324.99
668.86	45963.05
669.05	45504.72
669.25	45652.17
669.44	45320.73
669.64	45429.19
669.84	45493.41
670.03	45919.23
670.23	45455.32
670.43	45538.31
670.62	45581.56
670.82	45464.74
671.01	45675.85
671.21	45312.87
671.41	45469.33
671.60	45582.05
671.80	45760.06
672.00	45215.63
672.19	45516.76
672.39	45410.59
672.58	45367.50
672.78	45422.23
672.98	45792.25
673.17	45530.44
673.37	44882.30
673.56	45173.93
673.76	45393.72
673.96	45534.70
674.15	45365.13
674.35	45468.18
674.54	45378.32
674.74	45384.95
674.94	45219.97
675.13	45232.34
675.33	44819.80
675.52	45482.27
675.72	45244.05
675.91	45087.02
676.11	45358.82
676.31	44838.31
676.50	45135.84
676.70	45100.53
676.89	45380.53
677.09	45499.31
677.28	45434.84
677.48	44882.22
677.68	45310.82
677.87	45230.78
678.07	45049.99
678.26	45231.93
678.46	45298.78
678.65	45028.20
678.85	45372.75
679.04	44740.91
679.24	45065.80
679.44	44813.82
679.63	45052.77
679.83	44802.18
680.02	44877.47
680.22	44724.36
680.41	45011.16
680.61	44768.68
680.80	44777.12
681.00	44879.11
681.19	44942.35
681.39	44834.87
681.59	44636.63
681.78	44499.66
681.98	44850.43
682.17	44365.64
682.37	44789.57
682.56	44402.99
682.76	44797.43
682.95	44755.98
683.15	44910.07
683.34	44707.32
683.54	44821.60
683.73	44933.01
683.93	44281.59
684.12	44751.07
684.32	44756.55
684.51	44341.23
684.71	44711.50
684.90	44474.84
685.10	44460.25
685.29	44295.43
685.49	44449.61
685.68	44508.18
685.88	44445.84
686.07	44257.59
686.27	44779.57
686.46	44693.89
686.66	44313.54
686.85	44693.23
687.05	44375.80
687.24	44218.59
687.44	44489.58
687.63	44376.37
687.83	43897.39
688.02	44367.20
688.22	44593.37
688.41	44223.92
688.61	44203.69
688.80	44475.98
689.00	44096.13
689.19	43877.08
689.39	44580.27
689.58	44506.54
689.77	44323.94
689.97	44643.67
690.16	44241.20
690.36	43886.33
690.55	43724.05
690.75	44455.34
690.94	43914.76
691.14	44287.90
691.33	43564.47
691.53	44140.69
691.72	43946.62
691.91	44136.76
692.11	44079.91
692.30	44219.74
692.50	44362.36
692.69	43877.16
692.89	44016.75
693.08	43911.48
693.28	43908.94
693.47	44176.73
693.66	43907.22
693.86	43790.00
694.05	43717.66
694.25	43893.05
694.44	44012.73
694.64	43764.27
694.83	43760.83
695.02	43836.36
695.22	43995.20
695.41	43802.53
695.61	43703.90
695.80	43779.35
695.99	43952.03
696.19	43997.74
696.38	44011.67
696.58	43698.57
696.77	44309.69
696.96	44240.14
697.16	43875.85
697.35	43850.62
697.55	43792.29
697.74	43620.01
697.93	44075.07
698.13	43732.98
698.32	44035.59
698.52	43740.60
698.71	43348.86
698.90	44269.96
699.10	43693.00
699.29	43640.17
699.49	44003.07
699.68	43735.03
699.87	43654.42
700.07	43849.22
700.26	43613.30
700.45	43662.78
700.65	43229.02
700.84	43731.01
701.04	43443.48
701.23	43676.21
701.42	43590.77
701.62	43646.31
701.81	43718.32
702.00	43612.97
702.20	43324.37
702.39	43484.27
702.58	43705.37
702.78	43399.82
702.97	43418.33
703.17	43318.06
703.36	43422.75
703.55	43329.45
703.75	43319.45
703.94	43593.80
704.13	43490.01
704.33	43419.89
704.52	43989.88
704.71	43743.79
704.91	43639.02
705.10	43243.02
705.29	43227.13
705.49	43248.10
705.68	43281.77
705.87	43262.77
706.07	42778.46
706.26	43336.58
706.45	42875.62
706.65	42786.41
706.84	43375.00
707.03	43652.45
707.23	43069.68
707.42	43074.68
707.61	43731.34
707.80	43199.28
708.00	43360.66
708.19	43071.24
708.38	43398.92
708.58	42706.05
708.77	43277.27
708.96	42850.72
709.16	42791.16
709.35	43533.34
709.54	43093.44
709.74	42931.16
709.93	42723.66
710.12	43408.34
710.31	43631.81
710.51	43157.83
710.70	43181.50
710.89	43368.69
711.09	42856.20
711.28	42888.97
711.47	43315.03
711.66	43072.39
711.86	43094.91
712.05	43191.82
712.24	43447.33
712.43	43057.31
712.63	42740.04
712.82	43356.89
713.01	43007.26
713.21	42780.10
713.40	42865.21
713.59	43080.25
713.78	42549.17
713.98	43060.84
714.17	42824.50
714.36	42928.87
714.55	42424.33
714.75	42645.59
714.94	42791.98
715.13	43068.78
715.32	42535.66
715.52	42845.55
715.71	42571.29
715.90	42569.16
716.09	42519.76
716.29	42916.41
716.48	42809.51
716.67	42309.97
716.86	42788.05
717.06	42755.85
717.25	42912.24
717.44	43013.82
717.63	42974.41
717.82	42355.84
718.02	42821.47
718.21	43008.98
718.40	43133.01
718.59	42963.19
718.79	42817.46
718.98	42742.91
719.17	42981.87
719.36	42986.45
719.55	42671.64
719.75	42555.97
719.94	42407.13
720.13	42727.59
720.32	42552.94
720.51	42321.44
720.71	42370.34
720.90	42043.73
721.09	42388.12
721.28	42279.82
721.47	42679.50
721.67	42493.88
721.86	42476.02
722.05	42404.75
722.24	42124.75
722.43	42600.86
722.63	42184.47
722.82	42328.73
723.01	42342.66
723.20	41997.29
723.39	42091.82
723.58	42365.84
723.78	41936.67
723.97	42408.27
724.16	41921.43
724.35	42147.77
724.54	41880.06
724.73	42249.10
724.93	41889.73
725.12	42377.39
725.31	41627.18
725.50	42130.57
725.69	42433.83
725.88	42146.30
726.08	41811.90
726.27	42311.69
726.46	41605.39
726.65	42449.80
726.84	41714.91
727.03	42019.08
727.23	42363.30
727.42	42096.49
727.61	42083.14
727.80	41901.85
727.99	42181.77
728.18	42292.93
728.37	41993.60
728.56	41813.87
728.76	41620.79
728.95	41859.66
729.14	41781.35
729.33	41701.15
729.52	41770.86
729.71	41870.97
729.90	41922.00
730.09	41644.63
730.29	41984.67
730.48	41414.11
730.67	41902.18
730.86	41511.10
731.05	41915.94
731.24	41581.79
731.43	41680.75
731.62	41525.76
731.81	41357.66
732.01	41941.66
732.20	41358.40
732.39	41906.44
732.58	41832.30
732.77	41196.69
732.96	41929.87
733.15	42046.52
733.34	41701.64
733.53	41899.39
733.72	41870.15
733.92	41876.54
734.11	41909.14
734.30	41833.37
734.49	42031.86
734.68	41709.10
734.87	41647.00
735.06	41663.96
735.25	41838.85
735.44	41593.02
735.63	41770.62
735.82	41641.84
736.01	41549.52
736.20	41643.15
736.40	41959.68
736.59	41715.40
736.78	42147.44
736.97	41886.04
737.16	41879.49
737.35	41955.26
737.54	41971.40
737.73	41644.54
737.92	41707.70
738.11	41872.85
738.30	41635.45
738.49	41545.67
738.68	41515.28
738.87	41850.16
739.06	41654.95
739.25	41854.34
739.44	41823.13
739.63	41788.15
739.82	41448.92
740.01	41921.18
740.20	41596.78
740.39	41695.99
740.59	41695.17
740.78	41807.97
740.97	41708.60
741.16	41510.61
741.35	41908.73
741.54	41705.65
741.73	41841.97
741.92	41731.54
742.11	41829.35
742.30	41931.01
742.49	41448.02
742.68	41852.45
742.87	41727.53
743.06	41195.06
743.25	41651.92
743.44	41336.12
743.63	41671.90
743.82	41390.27
744.01	41410.34
744.20	41143.77
744.39	41517.90
744.58	41279.84
744.77	41283.53
744.96	40966.75
745.15	41548.70
745.34	41187.35
745.53	41427.13
745.72	41080.12
745.91	41313.51
746.10	41103.63
746.29	41517.90
746.48	41507.49
746.67	41327.11
746.86	41363.89
747.04	41503.32
747.23	41209.06
747.42	41472.51
747.61	41052.27
747.80	41757.02
747.99	41030.32
748.18	41616.36
748.37	41410.99
748.56	41024.75
748.75	41283.20
748.94	41456.13
749.13	41320.15
749.32	41066.85
749.51	41227.90
749.70	41366.02
749.89	41106.34
750.08	41190.39
750.27	40830.68
750.46	41048.67
750.65	41387.65
750.84	40771.29
751.02	41006.89
751.21	40871.64
751.40	41160.32
751.59	41319.00
751.78	41102.57
751.97	41299.26
752.16	40997.88
752.35	41328.01
752.54	40910.06
752.73	41253.14
752.92	40866.40
753.11	41006.48
753.30	41225.45
753.49	41515.03
753.67	41408.29
753.86	41021.14
754.05	41382.40
754.24	41313.76
754.43	41317.11
754.62	41388.47
754.81	40968.39
755.00	41106.42
755.19	41166.96
755.38	40596.56
755.56	41060.54
755.75	41400.92
755.94	40843.95
756.13	40885.16
756.32	41069.64
756.51	40840.76
756.70	41043.01
756.89	41023.44
757.08	40951.92
757.26	41149.02
757.45	41083.40
757.64	40949.38
757.83	41362.50
758.02	41076.52
758.21	41184.73
758.40	41235.28
758.59	41240.60
758.77	40904.49
758.96	41081.93
759.15	41113.71
759.34	40806.35
759.53	40860.99
759.72	40897.12
759.91	40583.53
760.09	40853.04
760.28	40944.22
760.47	40501.29
760.66	40985.34
760.85	40487.77
761.04	40972.15
761.23	40832.48
761.41	40928.74
761.60	41203.00
761.79	41022.04
761.98	40690.85
762.17	41320.47
762.36	40821.01
762.54	41273.53
762.73	41086.92
762.92	40857.88
763.11	41253.63
763.30	41305.48
763.49	41189.57
763.67	40772.03
763.86	41057.02
764.05	41182.52
764.24	41065.30
764.43	41402.97
764.61	40738.19
764.80	40793.82
764.99	41345.87
765.18	40698.05
765.37	41028.51
765.55	41150.82
765.74	40800.12
765.93	40598.28
766.12	41020.16
766.31	40969.53
766.49	41006.40
766.68	41096.75
766.87	40933.73
767.06	40658.57
767.25	40935.37
767.43	41091.92
767.62	40832.48
767.81	41269.11
768.00	40932.10
768.19	40823.72
768.37	41050.47
768.56	41140.50
768.75	41232.98
768.94	41343.74
769.12	41004.18
769.31	41062.92
769.50	41063.33
769.69	41319.57
769.88	40810.28
770.06	41691.24
770.25	41073.98
770.44	41127.96
770.63	41427.29
770.81	41237.49
771.00	40850.01
771.19	41069.31
771.38	40915.96
771.56	41214.72
771.75	40474.66
771.94	40994.44
772.13	41075.95
772.31	40835.10
772.50	41266.32
772.69	40996.24
772.88	41457.44
773.06	40889.91
773.25	41177.12
773.44	41228.72
773.62	41205.54
773.81	41259.69
774.00	41039.49
774.19	41188.99
774.37	40960.19
774.56	41317.20
774.75	40766.87
774.94	41204.80
775.12	40757.28
775.31	41116.17
775.50	41025.81
775.68	40869.59
775.87	40784.64
776.06	40653.98
776.25	40973.79
776.43	40627.60
776.62	41227.99
776.81	40659.96
776.99	41037.61
777.18	41099.05
777.37	40689.37
777.55	41027.04
777.74	41272.71
777.93	41249.86
778.12	41202.18
778.30	40995.91
778.49	41033.43
778.68	41296.22
778.86	41003.69
779.05	41204.31
779.24	41244.04
779.42	40837.64
779.61	40874.10
779.80	40899.16
779.98	40998.29
780.17	41216.19
780.36	40668.40
780.54	41124.61
780.73	40171.23
780.92	40920.30
781.10	40675.69
781.29	40653.65
781.48	40474.99
781.66	40874.43
781.85	41142.22
782.04	40795.05
782.22	41014.42
782.41	40661.11
782.60	41072.10
782.78	41096.67
782.97	41242.90
783.16	40669.71
783.34	40813.64
783.53	40998.12
783.71	40781.20
783.90	41022.94
784.09	40984.36
784.27	40941.03
784.46	40983.70
784.65	41029.17
784.83	40750.15
785.02	40897.20
785.20	41447.94
785.39	40573.95
785.58	41217.58
785.76	40990.01
785.95	41045.06
786.14	41136.73
786.32	41110.35
786.51	41111.17
786.69	41397.64
786.88	41236.59
787.07	41144.18
787.25	41141.40
787.44	41150.49
787.62	41153.69
787.81	41472.27
788.00	41525.84
788.18	41271.98
788.37	41435.08
788.55	42087.48
788.74	41457.36
788.93	41801.99
789.11	42065.93
789.30	41725.97
789.48	41354.47
789.67	41742.93
789.86	41710.57
790.04	41902.34
790.23	41970.66
790.41	41749.97
790.60	42063.39
790.78	42271.47
790.97	41697.05
791.16	41941.99
791.34	42500.59
791.53	41748.66
791.71	42410.32
791.90	41791.92
792.08	42085.43
792.27	42125.57
792.46	42229.77
792.64	42330.04
792.83	42226.41
793.01	42546.22
793.20	42546.55
793.38	42533.12
793.57	42555.89
793.75	42646.98
793.94	42715.22
794.12	43166.59
794.31	42548.76
794.50	42839.49
794.68	42985.06
794.87	42709.49
795.05	43182.65
795.24	42934.44
795.42	42941.56
795.61	43522.45
795.79	43524.66
795.98	42917.97
796.16	43349.52
796.35	43413.01
796.53	43106.88
796.72	43774.10
796.90	43865.61
797.09	43679.16
797.27	43650.65
797.46	43525.56
797.64	43812.77
797.83	43694.48
798.01	43904.76
798.20	44118.08
798.38	43794.50
798.57	44192.79
798.75	44054.43
798.94	43257.69
799.12	44540.62
799.31	43961.21
799.49	43966.69
799.68	43797.70
799.86	43938.02
800.05	43852.75
800.23	43910.99
800.42	43750.92
800.60	44307.56
800.79	43766.65
800.97	44068.27
801.16	44379.97
801.34	43804.99
801.53	43959.49
801.71	44155.60
801.90	43835.13
802.08	44471.15
802.27	44159.69
802.45	43953.26
802.64	44187.47
802.82	44381.20
803.00	43768.45
803.19	44003.15
803.37	44577.23
803.56	44161.50
803.74	44135.12
803.93	44373.67
804.11	44196.56
804.30	44137.25
804.48	44232.19
804.67	44332.79
804.85	44230.06
805.03	44595.58
805.22	44084.90
805.40	43700.54
805.59	44092.44
805.77	44173.46
805.96	43717.42
806.14	44049.68
806.32	44064.59
806.51	44675.21
806.69	44136.43
806.88	44084.25
807.06	43867.33
807.25	44048.20
807.43	43930.32
807.61	43938.60
807.80	43883.79
807.98	44217.37
808.17	43867.33
808.35	43730.85
808.53	44342.70
808.72	43884.61
808.90	43947.03
809.09	44012.65
809.27	44019.70
809.45	43695.63
809.64	44144.05
809.82	43895.26
810.01	43984.96
810.19	44289.37
810.37	44063.19
810.56	43981.36
810.74	44438.87
810.93	43981.85
811.11	44128.32
811.29	43889.69
811.48	44003.23
811.66	43790.00
811.84	43628.04
812.03	43443.48
812.21	43554.89
812.40	43811.38
812.58	44033.29
812.76	43739.94
812.95	44024.37
813.13	43397.03
813.31	43767.14
813.50	43725.85
813.68	43746.91
813.86	43920.66
814.05	44060.66
814.23	43501.15
814.42	43989.88
814.60	43828.99
814.78	44030.59
814.97	43864.95
815.15	43575.37
815.33	43744.12
815.52	43331.66
815.70	43308.48
815.88	43513.77
816.07	43255.97
816.25	43461.01
816.43	43568.32
816.62	43078.78
816.80	43666.71
816.98	43453.64
817.17	43398.83
817.35	43341.08
817.53	43468.87
817.72	43495.01
817.90	43029.46
818.08	43211.73
818.26	43260.47
818.45	42820.49
818.63	43120.56
818.81	43128.34
819.00	42723.99
819.18	43192.48
819.36	43202.39
819.55	43091.88
819.73	42805.50
819.91	42956.72
820.09	42765.19
820.28	43064.36
820.46	42617.74
820.64	43175.36
820.83	42591.61
821.01	42663.45
821.19	42620.77
821.38	42681.88
821.56	42739.47
821.74	43028.97
821.92	42707.03
822.11	43321.34
822.29	42471.35
822.47	42506.90
822.65	42758.23
822.84	42862.43
823.02	42382.14
823.20	42919.85
823.39	42136.55
823.57	42328.65
823.75	42415.07
823.93	42127.95
824.12	42390.66
824.30	42203.07
824.48	42153.91
824.66	42575.39
824.85	41752.43
825.03	42531.23
825.21	42480.44
825.39	42115.74
825.58	42429.82
825.76	42072.24
825.94	42374.69
826.12	41925.77
826.31	41810.10
826.49	42014.90
826.67	42136.71
826.85	41915.04
827.03	42052.09
827.22	42328.32
827.40	42044.55
827.58	41935.93
827.76	42128.68
827.95	41684.27
828.13	41821.41
828.31	42012.19
828.49	41955.75
828.67	41680.18
828.86	41487.18
829.04	41705.16
829.22	41638.56
829.40	41474.40
829.58	41445.15
829.77	41751.28
829.95	41806.66
830.13	41679.03
830.31	41538.05
830.49	41528.38
830.68	41563.03
830.86	41305.48
831.04	41148.77
831.22	41150.33
831.40	41153.11
831.59	41512.16
831.77	41059.40
831.95	41342.75
832.13	40906.95
832.31	41094.38
832.50	40991.81
832.68	40757.20
832.86	40797.59
833.04	41168.35
833.22	40580.58
833.40	41371.43
833.59	40817.00
833.77	41193.01
833.95	40065.31
834.13	41442.45
834.31	40851.49
834.49	40706.33
834.67	40814.05
834.86	40830.84
835.04	40643.17
835.22	40712.14
835.40	40630.55
835.58	40497.84
835.76	40501.12
835.95	40466.14
836.13	40238.65
836.31	40113.40
836.49	40550.76
836.67	40499.81
836.85	40423.22
837.03	40236.44
837.21	40353.50
837.40	40177.13
837.58	39731.99
837.76	40194.91
837.94	40190.16
838.12	40589.68
838.30	40130.11
838.48	40044.92
838.66	39975.29
838.85	39758.94
839.03	39830.62
839.21	39580.35
839.39	39586.33
839.57	39682.26
839.75	39454.20
839.93	39482.30
840.11	39453.71
840.29	39339.10
840.47	39650.72
840.66	39543.16
840.84	39657.69
841.02	39363.35
841.20	39682.26
841.38	39517.44
841.56	39468.95
841.74	39795.15
841.92	39282.42
842.10	39149.30
842.28	39291.92
842.46	38993.24
842.65	38868.48
842.83	39049.11
843.01	39207.79
843.19	38559.40
843.37	38922.79
843.55	38469.29
843.73	38787.71
843.91	38907.97
844.09	38889.78
844.27	39170.68
844.45	38825.72
844.63	38750.85
844.81	38804.34
844.99	38902.89
845.17	38721.85
845.35	38934.51
845.54	38527.94
845.72	38454.46
845.90	38485.35
846.08	38602.24
846.26	38253.52
846.44	38700.55
846.62	38199.53
846.80	38141.21
846.98	38237.30
847.16	38286.45
847.34	38502.63
847.52	38370.50
847.70	38247.45
847.88	38472.08
848.06	38127.03
848.24	38240.90
848.42	38317.17
848.60	37698.35
848.78	38095.50
848.96	37758.48
849.14	37748.98
849.32	37897.66
849.50	37649.12
849.68	37793.54
849.86	37696.80
850.04	37376.82
850.22	37217.41
850.40	37012.61
850.58	37199.96
850.76	37658.13
850.94	36571.89
851.12	37131.56
851.30	36959.94
851.48	37296.30
851.66	36919.63
851.84	36924.63
852.02	37005.98
852.20	37168.34
852.38	36970.34
852.56	37232.65
852.74	37237.40
852.92	37126.40
853.10	36943.88
853.28	37210.53
853.46	36403.96
853.64	36961.74
853.82	36622.27
854.00	36692.23
854.18	36403.79
854.36	36194.49
854.54	36495.38
854.72	36137.31
854.90	36090.94
855.07	36316.30
855.25	36216.36
855.43	36238.15
855.61	36098.89
855.79	35805.29
855.97	35874.68
856.15	35794.56
856.33	35681.02
856.51	35919.49
856.69	35447.31
856.87	35908.35
857.05	35658.17
857.23	35705.43
857.41	35451.57
857.59	35530.46
857.77	35542.01
857.94	35537.09
858.12	35787.76
858.30	35353.84
858.48	35404.55
858.66	35172.06
858.84	35455.42
859.02	35048.94
859.20	35028.70
859.38	35486.14
859.56	35150.35
859.74	35020.92
859.92	35161.08
860.09	34947.44
860.27	35204.66
860.45	34786.88
860.63	34834.06
860.81	35079.66
860.99	34719.62
861.17	34396.62
861.35	33911.41
861.53	33767.97
861.70	33603.48
861.88	34416.03
862.06	34453.63
862.24	33985.22
862.42	34085.57
862.60	34376.22
862.78	34518.43
862.96	34562.42
863.14	34190.92
863.31	34250.80
863.49	33941.72
863.67	33834.49
863.85	33684.50
864.03	33888.23
864.21	33736.35
864.39	33885.36
864.56	33524.10
864.74	33699.08
864.92	33583.82
865.10	33470.04
865.28	33549.09
865.46	33790.26
865.64	33056.02
865.81	33404.01
865.99	32870.72
866.17	33281.29
866.35	33113.20
866.53	33029.39
866.71	33047.25
866.88	32962.88
867.06	32739.16
867.24	32822.30
867.42	32595.72
867.60	32699.92
867.78	32603.09
867.95	33012.85
868.13	32543.53
868.31	32862.03
868.49	32750.22
868.67	32558.20
868.84	32527.40
869.02	32636.27
869.20	32076.68
869.38	32592.69
869.56	32264.68
869.73	32088.97
869.91	32328.17
870.09	32135.09
870.27	31938.15
870.45	31962.16
870.62	31740.32
870.80	32097.49
870.98	32023.92
871.16	32049.89
871.34	32004.18
871.51	32081.92
871.69	31770.71
871.87	31964.53
872.05	31838.95
872.23	31935.45
872.40	31783.82
872.58	32051.61
872.76	31812.90
872.94	31703.46
873.11	31869.83
873.29	31489.81
873.47	31744.33
873.65	31458.77
873.83	31550.43
874.00	31456.64
874.18	31609.09
874.36	31322.29
874.54	31436.73
874.71	31053.02
874.89	30837.99
875.07	31059.58
875.25	30858.88
875.42	30830.78
875.60	30791.29
875.78	30906.14
875.96	30452.97
876.13	30609.68
876.31	30108.75
876.49	30088.10
876.66	29865.94
876.84	30300.03
877.02	30008.72
877.20	30117.59
877.37	30358.19
877.55	30282.41
877.73	30274.71
877.91	30145.44
878.08	30479.26
878.26	30234.98
878.44	30207.78
878.61	30107.27
878.79	29930.16
878.97	29999.30
879.15	30283.23
879.32	30113.50
879.50	30062.79
879.68	30289.54
879.85	29829.57
880.03	30027.89
880.21	29821.70
880.38	29960.47
880.56	29599.95
880.74	29964.98
880.92	29524.75
881.09	29839.56
881.27	29705.70
881.45	29874.21
881.62	29699.97
881.80	29557.68
881.98	29413.66
882.15	29625.34
882.33	29334.69
882.51	29386.63
882.68	29094.67
882.86	29431.03
883.04	29023.49
883.21	29004.81
883.39	29311.92
883.57	28921.99
883.74	28948.12
883.92	29023.32
884.10	29109.25
884.27	29033.15
884.45	28869.97
884.63	29199.53
884.80	29056.66
884.98	29142.51
885.16	29129.41
885.33	29194.70
885.51	29224.02
885.69	29271.62
885.86	29200.27
886.04	29399.57
886.21	29049.54
886.39	29373.11
886.57	28861.12
886.74	29174.71
886.92	29067.80
887.10	29034.38
887.27	28917.97
887.45	28884.80
887.62	28969.75
887.80	28970.65
887.98	29379.50
888.15	29192.07
888.33	29080.66
888.51	29290.21
888.68	28954.10
888.86	28971.63
889.03	28788.87
889.21	28935.10
889.39	29011.28
889.56	29024.47
889.74	28929.12
889.91	29069.93
890.09	29000.47
890.27	29091.81
890.44	29041.75
890.62	29011.03
890.79	29114.66
890.97	29066.82
891.14	28983.51
891.32	29015.46
891.50	28945.74
891.67	29111.71
891.85	29177.08
892.02	29056.09
892.20	29193.63
892.38	29123.26
892.55	28822.05
892.73	29080.26
892.90	28907.32
893.08	29031.51
893.25	28991.05
893.43	29238.28
893.60	28956.07
893.78	29245.32
893.96	28982.94
894.13	29119.17
894.31	29332.48
894.48	28932.15
894.66	29144.97
894.83	29137.52
895.01	29160.95
895.18	29103.19
895.36	29121.62
895.53	29197.24
895.71	28987.52
895.89	29051.26
896.06	28791.16
896.24	28884.47
896.41	28808.28
896.59	28888.16
896.76	28482.33
896.94	28832.70
897.11	28866.45
897.29	28906.83
897.46	28720.80
897.64	28860.96
897.81	28953.61
897.99	28640.02
898.16	29187.00
898.34	29061.66
898.51	28998.17
898.69	28850.31
898.86	28954.76
899.04	28954.35
899.21	28660.42
899.39	28801.90
899.56	28474.79
899.74	28809.76
899.91	28528.78
900.09	28470.86
900.26	28593.25
900.44	28426.30
900.61	28447.35
900.79	28932.23
900.96	28567.94
901.14	28582.93
901.31	28311.78
901.49	28316.44
901.66	28426.54
901.84	28477.25
902.01	28346.35
902.19	28382.14
902.36	28140.89
902.54	28119.76
902.71	28122.79
902.88	28168.50
903.06	27680.18
903.23	28252.79
903.41	27845.99
903.58	27798.72
903.76	27703.12
903.93	27948.55
904.11	28143.10
904.28	27765.46
904.45	27650.77
904.63	27565.33
904.80	27291.15
904.98	27478.74
905.15	27201.28
905.33	27489.80
905.50	27301.47
905.68	27337.11
905.85	27140.91
906.02	27095.94
906.20	27393.30
906.37	26988.30
906.55	26903.59
906.72	27306.39
906.90	26941.11
907.07	26802.26
907.24	27013.77
907.42	26759.66
907.59	26776.13
907.77	26612.62
907.94	26630.97
908.11	26692.65
908.29	26588.29
908.46	26574.03
908.64	26258.56
908.81	26403.72
908.98	26187.29
909.16	26396.92
909.33	26252.83
909.51	26089.65
909.68	26083.34
909.85	26070.89
910.03	26110.13
910.20	25827.92
910.37	25791.14
910.55	25800.39
910.72	25731.66
910.90	25555.13
911.07	25591.42
911.24	25472.72
911.42	25911.97
911.59	25580.85
911.76	25722.08
911.94	25510.73
912.11	25464.36
912.29	25430.45
912.46	25205.17
912.63	25245.80
912.81	24968.59
912.98	25139.31
913.15	24825.31
913.33	24974.41
913.50	24842.52
913.67	24635.67
913.85	24665.74
914.02	24762.24
914.19	24696.95
914.37	24597.17
914.54	24702.84
914.71	24553.59
914.89	24572.43
915.06	24596.51
915.23	24415.39
915.41	24327.17
915.58	24245.00
915.75	24075.27
915.93	24105.58
916.10	23926.99
916.27	24025.79
916.45	23971.06
916.62	23754.14
916.79	23992.36
916.97	23783.06
917.14	23766.84
917.31	23598.25
917.49	23575.15
917.66	23558.36
917.83	23311.62
918.00	23251.00
918.18	23015.48
918.35	22881.63
918.52	23018.68
918.70	22704.93
918.87	22695.10
919.04	22715.82
919.21	22675.44
919.39	22451.88
919.56	22638.74
919.73	22463.19
919.91	22542.24
920.08	22490.96
920.25	22271.25
920.42	22575.82
920.60	22242.25
920.77	22150.42
920.94	22186.30
921.11	21948.74
921.29	22096.93
921.46	21641.21
921.63	21940.38
921.81	21686.27
921.98	21746.07
922.15	21651.86
922.32	21699.46
922.50	21530.13
922.67	21524.40
922.84	21423.64
923.01	21290.19
923.19	21266.19
923.36	21346.80
923.53	21042.72
923.70	21151.01
923.87	21092.11
924.05	21189.68
924.22	20900.42
924.39	20960.06
924.56	20788.77
924.74	20894.11
924.91	20838.41
925.08	20717.66
925.25	20725.61
925.43	20730.03
925.60	20457.49
925.77	20688.74
925.94	20529.49
926.11	20476.82
926.29	20345.18
926.46	20405.96
926.63	20284.64
926.80	20264.65
926.97	20166.76
927.15	20236.39
927.32	19976.46
927.49	19907.73
927.66	19961.55
927.83	19971.46
928.01	19862.10
928.18	19751.27
928.35	19566.13
928.52	19739.72
928.69	19418.76
928.87	19406.39
929.04	19329.63
929.21	19291.46
929.38	19143.10
929.55	19165.38
929.72	18956.49
929.90	18939.94
930.07	18977.30
930.24	18740.88
930.41	18749.24
930.58	18710.49
930.75	18805.60
930.93	18662.16
931.10	18706.80
931.27	18541.65
931.44	18605.80
931.61	18479.48
931.78	18542.06
931.95	18423.44
932.13	18291.64
932.30	18483.00
932.47	18105.76
932.64	18224.96
932.81	18205.95
932.98	18109.61
933.15	18091.76
933.33	17911.45
933.50	18029.91
933.67	17762.77
933.84	17780.96
934.01	17669.22
934.18	17702.31
934.35	17519.23
934.52	17555.68
934.70	17557.56
934.87	17529.06
935.04	17384.80
935.21	17531.92
935.38	17455.66
935.55	17401.59
935.72	17503.09
935.89	17320.65
936.06	17370.46
936.24	17168.86
936.41	17319.10
936.58	17053.35
936.75	17044.10
936.92	17011.08
937.09	16959.88
937.26	16808.17
937.43	16826.60
937.60	16855.68
937.77	16714.95
937.94	16781.22
938.12	16728.22
938.29	16582.32
938.46	16696.11
938.63	16528.09
938.80	16714.05
938.97	16572.57
939.14	16482.05
939.31	16420.04
939.48	16457.48
939.65	16272.34
939.82	16234.66
939.99	16225.81
940.16	16147.58
940.33	16079.09
940.50	16011.43
940.67	16046.90
940.85	16013.72
941.02	15943.03
941.19	16002.17
941.36	15933.03
941.53	15872.25
941.70	15836.86
941.87	15699.89
942.04	15757.97
942.21	15728.32
942.38	15733.23
942.55	15526.55
942.72	15614.86
942.89	15577.18
943.06	15449.14
943.23	15356.57
943.40	15316.84
943.57	15335.76
943.74	15319.46
943.91	15232.87
944.08	15189.46
944.25	15258.27
944.42	15050.19
944.59	14981.79
944.76	15006.78
944.93	14930.51
945.10	14855.39
945.27	14818.28
945.44	14691.80
945.61	14688.69
945.78	14675.83
945.95	14683.69
946.12	14584.57
946.29	14713.02
946.46	14604.23
946.63	14599.48
946.80	14590.79
946.97	14527.55
947.14	14513.38
947.31	14576.46
947.48	14447.76
947.65	14399.76
947.82	14364.45
947.99	14397.14
948.16	14150.64
948.33	14322.43
948.50	14111.98
948.67	14115.50
948.84	14051.44
949.01	13989.67
949.18	14034.81
949.35	14044.56
949.52	13915.46
949.68	14003.44
949.85	13931.35
950.02	13870.81
950.19	13877.20
950.36	13802.00
950.53	13822.15
950.70	13652.42
950.87	13661.34
951.04	13723.11
951.21	13588.68
951.38	13509.79
951.55	13534.29
951.72	13434.18
951.89	13392.65
952.06	13333.83
952.23	13332.36
952.39	13230.29
952.56	13115.19
952.73	13201.45
952.90	13062.03
953.07	13180.40
953.24	13034.58
953.41	13045.48
953.58	12906.30
953.75	13033.19
953.92	12911.79
954.09	12906.54
954.25	12881.23
954.42	12905.32
954.59	12812.34
954.76	12758.11
954.93	12794.73
955.10	12857.48
955.27	12662.92
955.44	12703.96
955.61	12604.02
955.77	12690.44
955.94	12566.75
956.11	12625.65
956.28	12559.54
956.45	12518.17
956.62	12565.03
956.79	12510.14
956.96	12470.90
957.12	12449.85
957.29	12428.22
957.46	12431.74
957.63	12313.86
957.80	12322.14
957.97	12243.82
958.14	12321.15
958.30	12141.18
958.47	12153.38
958.64	12141.01
958.81	12220.72
958.98	12046.97
959.15	12030.10
959.32	12082.20
959.48	12035.99
959.65	11877.97
959.82	11961.78
959.99	11846.43
960.16	11919.59
960.33	11878.05
960.49	11823.25
960.66	11785.24
960.83	11774.35
961.00	11751.90
961.17	11747.97
961.33	11700.95
961.50	11696.11
961.67	11590.19
961.84	11717.25
962.01	11596.66
962.18	11619.68
962.34	11499.51
962.51	11496.23
962.68	11409.23
962.85	11521.54
963.02	11324.69
963.18	11365.41
963.35	11286.19
963.52	11298.56
963.69	11290.04
963.86	11309.87
964.02	11214.02
964.19	11293.07
964.36	11229.26
964.53	11218.28
964.69	11114.16
964.86	11220.98
965.03	11039.70
965.20	11160.20
965.37	10950.24
965.53	10987.84
965.70	10924.68
965.87	11014.30
966.04	10902.73
966.20	10886.35
966.37	10833.18
966.54	10756.18
966.71	10896.67
966.87	10738.97
967.04	10719.64
967.21	10638.21
967.38	10641.74
967.54	10628.55
967.71	10564.08
967.88	10566.13
968.05	10520.50
968.21	10401.22
968.38	10376.81
968.55	10307.26
968.72	10337.49
968.88	10220.51
969.05	10281.21
969.22	10207.98
969.39	10218.95
969.55	10182.17
969.72	10093.13
969.89	10079.77
970.05	10164.72
970.22	10146.54
970.39	10042.09
970.56	10052.58
970.72	10065.03
970.89	10074.78
971.06	9988.76
971.22	9967.55
971.39	9956.65
971.56	9958.29
971.73	9875.55
971.89	9954.11
972.06	9844.09
972.23	9905.53
972.39	9781.92
972.56	9832.71
972.73	9672.97
972.89	9768.73
973.06	9730.88
973.23	9709.42
973.39	9687.55
973.56	9669.12
973.73	9644.87
973.89	9669.69
974.06	9589.57
974.23	9585.23
974.39	9556.72
974.56	9598.83
974.73	9505.28
974.89	9485.54
975.06	9464.73
975.23	9523.55
975.39	9433.03
975.56	9438.27
975.73	9397.39
975.89	9387.23
976.06	9375.93
976.23	9266.24
976.39	9328.01
976.56	9228.88
976.73	9234.78
976.89	9202.67
977.06	9168.43
977.23	9099.21
977.39	9100.85
977.56	9101.34
977.72	8991.48
977.89	9042.85
978.06	8973.30
978.22	8929.72
978.39	8932.91
978.56	8890.72
978.72	8816.83
978.89	8849.44
979.05	8830.92
979.22	8781.94
979.39	8807.74
979.55	8765.22
979.72	8718.20
979.88	8793.24
980.05	8697.72
980.22	8738.03
980.38	8735.82
980.55	8699.44
980.71	8684.21
980.88	8653.00
981.05	8653.65
981.21	8609.58
981.38	8574.03
981.54	8633.91
981.71	8546.99
981.88	8529.22
982.04	8562.15
982.21	8508.90
982.37	8527.91
982.54	8490.63
982.70	8486.78
982.87	8492.19
983.04	8323.68
983.20	8475.97
983.37	8361.28
983.53	8389.54
983.70	8326.22
983.86	8277.23
984.03	8292.72
984.20	8264.37
984.36	8241.76
984.53	8231.44
984.69	8188.19
984.86	8106.76
985.02	8163.69
985.19	8115.77
985.35	8096.03
985.52	8040.90
985.68	8023.29
985.85	8040.24
986.02	8040.65
986.18	7981.10
986.35	7975.28
986.51	7980.36
986.68	7962.01
986.84	7882.22
987.01	7887.96
987.17	7876.65
987.34	7828.97
987.50	7784.90
987.67	7770.81
987.83	7814.97
988.00	7779.41
988.16	7765.08
988.33	7734.60
988.49	7748.86
988.66	7653.10
988.82	7739.36
988.99	7693.24
989.15	7730.92
989.32	7648.84
989.48	7654.24
989.65	7581.83
989.81	7607.06
989.98	7589.36
990.14	7553.56
990.31	7551.02
990.47	7507.20
990.64	7528.50
990.80	7487.54
990.97	7456.24
991.13	7464.76
991.30	7436.26
991.46	7404.06
991.63	7377.68
991.79	7430.19
991.95	7310.68
992.12	7361.14
992.28	7332.47
992.45	7292.08
992.61	7292.65
992.78	7278.64
992.94	7196.81
993.11	7253.91
993.27	7176.57
993.44	7200.33
993.60	7149.21
993.76	7140.78
993.93	7142.33
994.09	7136.19
994.26	7105.30
994.42	7096.87
994.59	7084.66
994.75	7082.04
994.91	7040.26
995.08	7028.06
995.24	6994.96
995.41	7000.28
995.57	6986.19
995.74	6940.32
995.90	6908.29
996.06	6934.01
996.23	6908.70
996.39	6891.74
996.56	6856.35
996.72	6871.43
996.88	6854.31
997.05	6801.63
997.21	6785.00
997.38	6790.00
997.54	6782.71
997.70	6786.40
997.87	6740.19
998.03	6716.60
998.20	6685.14
998.36	6705.21
998.52	6653.69
998.69	6707.43
998.85	6653.20
999.02	6624.44
999.18	6593.23
999.34	6649.26
999.51	6628.62
999.67	6623.38
999.83	6627.55
1000.00	6629.68
1000.16	6599.21
1000.33	6563.41
1000.49	6565.87
1000.65	6554.65
1000.82	6550.14
1000.98	6536.71
1001.14	6468.22
1001.31	6468.06
1001.47	6452.90
1001.63	6441.03
1001.80	6418.66
1001.96	6382.37
1002.12	6333.30
1002.29	6381.80
1002.45	6308.48
1002.61	6318.97
1002.78	6307.42
1002.94	6293.33
1003.10	6273.42
1003.27	6283.99
1003.43	6238.69
1003.59	6234.92
1003.76	6200.84
1003.92	6214.60
1004.08	6206.25
1004.25	6211.24
1004.41	6158.49
1004.57	6162.42
1004.74	6115.64
1004.90	6180.61
1005.06	6119.41
1005.23	6142.27
1005.39	6102.37
1005.55	6115.64
1005.71	6094.18
1005.88	6072.31
1006.04	6080.66
1006.20	6077.31
1006.37	5988.75
1006.53	5973.60
1006.69	5983.35
1006.85	5980.56
1007.02	5930.51
1007.18	5918.79
1007.34	5937.72
1007.51	5915.52
1007.67	5849.98
1007.83	5877.92
1007.99	5836.79
1008.16	5805.83
1008.32	5786.33
1008.48	5831.63
1008.64	5745.54
1008.81	5767.33
1008.97	5728.99
1009.13	5725.96
1009.29	5741.93
1009.46	5727.51
1009.62	5742.42
1009.78	5686.80
1009.95	5703.51
1010.11	5686.88
1010.27	5669.02
1010.43	5684.67
1010.59	5674.68
1010.76	5647.15
1010.92	5622.98
1011.08	5643.46
1011.24	5603.41
1011.41	5620.77
1011.57	5550.90
1011.73	5591.36
1011.89	5549.83
1012.06	5559.58
1012.22	5518.87
1012.38	5518.21
1012.54	5489.79
1012.70	5507.81
1012.87	5474.47
1013.03	5475.61
1013.19	5452.10
1013.35	5432.28
1013.51	5382.80
1013.68	5417.61
1013.84	5390.50
1014.00	5400.90
1014.16	5321.52
1014.32	5350.85
1014.49	5336.11
1014.65	5351.18
1014.81	5284.91
1014.97	5329.88
1015.13	5314.23
1015.30	5291.87
1015.46	5287.20
1015.62	5268.36
1015.78	5247.80
1015.94	5234.61
1016.10	5225.43
1016.27	5198.65
1016.43	5211.83
1016.59	5201.43
1016.75	5183.33
1016.91	5190.45
1017.07	5167.03
1017.24	5171.78
1017.40	5130.90
1017.56	5157.52
1017.72	5099.03
1017.88	5082.40
1018.04	5098.87
1018.21	5101.08
1018.37	5079.70
1018.53	5079.95
1018.69	5080.68
1018.85	5054.96
1019.01	5032.51
1019.17	5027.35
1019.34	5048.32
1019.50	5021.13
1019.66	4993.60
1019.82	4985.41
1019.98	4970.50
1020.14	5020.55
1020.30	4956.82
1020.46	4968.13
1020.63	4963.13
1020.79	4916.03
1020.95	4936.18
1021.11	4903.16
1021.27	4901.85
1021.43	4889.73
1021.59	4908.24
1021.75	4860.98
1021.91	4842.79
1022.07	4830.34
1022.24	4848.85
1022.40	4817.31
1022.56	4802.49
1022.72	4803.14
1022.88	4762.18
1023.04	4788.23
1023.20	4765.05
1023.36	4766.20
1023.52	4720.81
1023.68	4742.69
1023.84	4714.18
1024.01	4744.98
1024.17	4691.24
1024.33	4686.74
1024.49	4698.70
1024.65	4675.10
1024.81	4678.95
1024.97	4684.85
1025.13	4649.05
1025.29	4676.00
1025.45	4607.68
1025.61	4636.85
1025.77	4602.36
1025.93	4636.19
1026.09	4602.69
1026.25	4623.99
1026.41	4590.48
1026.57	4611.21
1026.73	4587.53
1026.90	4592.45
1027.06	4588.02
1027.22	4582.62
1027.38	4563.28
1027.54	4587.70
1027.70	4531.75
1027.86	4528.88
1028.02	4526.42
1028.18	4538.38
1028.34	4510.69
1028.50	4527.90
1028.66	4493.73
1028.82	4498.32
1028.98	4467.68
1029.14	4486.28
1029.30	4454.82
1029.46	4471.13
1029.62	4442.37
1029.78	4426.40
1029.94	4430.00
1030.10	4426.23
1030.26	4403.21
1030.42	4379.70
1030.58	4386.01
1030.74	4383.96
1030.90	4357.09
1031.06	4362.66
1031.22	4350.79
1031.38	4324.82
1031.54	4368.89
1031.70	4353.57
1031.86	4336.78
1032.02	4309.75
1032.18	4315.89
1032.34	4308.19
1032.50	4290.33
1032.66	4295.08
1032.82	4273.13
1032.98	4280.58
1033.14	4264.53
1033.30	4251.67
1033.45	4236.18
1033.61	4236.10
1033.77	4217.42
1033.93	4233.56
1034.09	4210.05
1034.25	4218.57
1034.41	4187.19
1034.57	4211.20
1034.73	4176.63
1034.89	4201.78
1035.05	4179.00
1035.21	4182.61
1035.37	4157.38
1035.53	4152.30
1035.69	4131.98
1035.85	4140.75
1036.01	4111.75
1036.16	4111.99
1036.32	4115.60
1036.48	4103.72
1036.64	4087.66
1036.80	4093.48
1036.96	4072.51
1037.12	4083.73
1037.28	4062.35
1037.44	4092.33
1037.60	4067.27
1037.76	4085.94
1037.91	4076.60
1038.07	4055.14
1038.23	4038.10
1038.39	4046.29
1038.55	4021.64
1038.71	4026.55
1038.87	4014.35
1039.03	4024.83
1039.19	3994.19
1039.35	3990.84
1039.50	4019.02
1039.66	4007.47
1039.82	3968.88
1039.98	4016.48
1040.14	3964.62
1040.30	3963.88
1040.46	3962.16
1040.62	3962.41
1040.77	3941.44
1040.93	3980.27
1041.09	3945.45
1041.25	3942.75
1041.41	3932.26
1041.57	3941.44
1041.73	3941.44
1041.88	3941.44

