SpectraSuite Data File
++++++++++++++++++++++++++++++++++++
Date: Tue Sep 20 12:48:28 EDT 2022
User: Laboratoire
Dark Spectrum Present: No
Reference Spectrum Present: No
Number of Sampled Component Spectra: 1
Spectrometers: FLMT00174
Integration Time (usec): 500 (FLMT00174)
Spectra Averaged: 25 (FLMT00174)
Boxcar Smoothing: 0 (FLMT00174)
Correct for Electrical Dark: No (FLMT00174)
Strobe/Lamp Enabled: No (FLMT00174)
Correct for Detector Non-linearity: No (FLMT00174)
Correct for Stray Light: No (FLMT00174)
Number of Pixels in Processed Spectrum: 3648
>>>>>Begin Processed Spectral Data<<<<<
345.74	3182.63
345.96	3182.63
346.18	3182.63
346.39	3208.59
346.61	3204.50
346.83	3224.65
347.05	3185.49
347.27	3209.74
347.49	3203.43
347.71	3184.18
347.93	3198.76
348.15	3212.12
348.36	3215.47
348.58	3225.55
348.80	3195.90
349.02	3193.36
349.24	3206.38
349.46	3197.45
349.68	3216.79
349.90	3192.37
350.11	3188.03
350.33	3220.72
350.55	3206.63
350.77	3236.94
350.99	3210.40
351.21	3204.25
351.43	3209.99
351.65	3199.50
351.86	3185.49
352.08	3220.88
352.30	3196.06
352.52	3204.66
352.74	3199.58
352.96	3210.89
353.18	3200.40
353.39	3201.96
353.61	3195.00
353.83	3226.12
354.05	3205.32
354.27	3202.78
354.49	3218.75
354.70	3219.00
354.92	3186.23
355.14	3196.47
355.36	3193.85
355.58	3213.59
355.80	3201.38
356.02	3215.56
356.23	3205.40
356.45	3217.03
356.67	3186.56
356.89	3219.00
357.11	3216.29
357.33	3196.47
357.54	3205.48
357.76	3198.35
357.98	3196.47
358.20	3215.23
358.42	3186.15
358.63	3218.59
358.85	3192.95
359.07	3217.20
359.29	3211.38
359.51	3211.62
359.73	3194.01
359.94	3210.56
360.16	3202.12
360.38	3230.06
360.60	3216.79
360.82	3228.01
361.03	3226.12
361.25	3197.04
361.47	3211.71
361.69	3222.85
361.91	3202.12
362.12	3203.76
362.34	3210.64
362.56	3218.67
362.78	3214.66
363.00	3224.24
363.21	3219.65
363.43	3213.18
363.65	3203.02
363.87	3217.69
364.09	3210.07
364.30	3201.06
364.52	3213.75
364.74	3209.74
364.96	3199.09
365.17	3204.50
365.39	3194.83
365.61	3208.59
365.83	3190.74
366.05	3212.44
366.26	3202.29
366.48	3204.50
366.70	3203.51
366.92	3209.00
367.13	3205.56
367.35	3222.03
367.57	3200.32
367.79	3208.43
368.01	3206.46
368.22	3193.36
368.44	3207.20
368.66	3218.26
368.88	3219.73
369.09	3219.08
369.31	3207.45
369.53	3211.22
369.75	3204.17
369.96	3212.77
370.18	3195.98
370.40	3211.87
370.62	3202.04
370.83	3209.33
371.05	3204.09
371.27	3224.98
371.49	3212.44
371.70	3198.60
371.92	3191.80
372.14	3216.62
372.36	3194.50
372.57	3206.55
372.79	3199.42
373.01	3227.68
373.22	3202.78
373.44	3224.65
373.66	3210.40
373.88	3209.99
374.09	3209.90
374.31	3204.33
374.53	3202.86
374.75	3221.78
374.96	3205.32
375.18	3214.16
375.40	3213.59
375.61	3215.72
375.83	3212.94
376.05	3208.76
376.27	3197.94
376.48	3205.23
376.70	3211.30
376.92	3217.36
377.13	3199.58
377.35	3223.34
377.57	3214.82
377.79	3214.57
378.00	3203.35
378.22	3208.43
378.44	3201.96
378.65	3214.00
378.87	3211.05
379.09	3209.25
379.30	3208.68
379.52	3209.99
379.74	3200.73
379.96	3221.54
380.17	3211.21
380.39	3225.22
380.61	3187.21
380.82	3208.51
381.04	3196.06
381.26	3212.53
381.47	3203.27
381.69	3211.62
381.91	3199.50
382.12	3217.03
382.34	3204.74
382.56	3215.88
382.77	3187.46
382.99	3222.03
383.21	3194.50
383.42	3215.31
383.64	3220.06
383.86	3235.05
384.07	3204.09
384.29	3217.20
384.51	3191.88
384.72	3223.75
384.94	3194.59
385.16	3208.84
385.37	3188.20
385.59	3214.08
385.81	3214.33
386.02	3217.52
386.24	3195.98
386.46	3214.33
386.67	3198.85
386.89	3199.75
387.11	3197.78
387.32	3207.28
387.54	3186.72
387.76	3211.30
387.97	3203.27
388.19	3222.19
388.40	3204.66
388.62	3207.36
388.84	3197.86
389.05	3205.89
389.27	3207.04
389.49	3215.97
389.70	3233.66
389.92	3221.78
390.14	3193.68
390.35	3215.15
390.57	3209.99
390.78	3213.51
391.00	3205.07
391.22	3204.17
391.43	3218.92
391.65	3207.12
391.86	3205.97
392.08	3216.21
392.30	3215.23
392.51	3217.85
392.73	3208.02
392.95	3210.81
393.16	3202.61
393.38	3212.69
393.59	3204.09
393.81	3225.06
394.03	3203.84
394.24	3215.72
394.46	3208.35
394.67	3212.69
394.89	3213.84
395.11	3223.18
395.32	3204.17
395.54	3213.67
395.75	3209.99
395.97	3203.76
396.19	3214.98
396.40	3214.74
396.62	3198.76
396.83	3219.49
397.05	3187.54
397.26	3224.24
397.48	3210.56
397.70	3214.98
397.91	3207.77
398.13	3214.41
398.34	3197.12
398.56	3219.73
398.78	3195.81
398.99	3224.32
399.21	3206.96
399.42	3214.82
399.64	3212.61
399.85	3211.30
400.07	3214.00
400.29	3212.85
400.50	3213.26
400.72	3222.44
400.93	3207.77
401.15	3214.66
401.36	3224.73
401.58	3211.62
401.79	3202.04
402.01	3212.94
402.23	3209.99
402.44	3215.07
402.66	3191.64
402.87	3225.88
403.09	3207.28
403.30	3219.73
403.52	3210.97
403.73	3222.03
403.95	3223.83
404.16	3214.16
404.38	3219.49
404.60	3231.78
404.81	3200.57
405.03	3212.28
405.24	3228.42
405.46	3230.30
405.67	3211.54
405.89	3211.13
406.10	3213.67
406.32	3223.58
406.53	3195.98
406.75	3232.51
406.96	3193.03
407.18	3224.40
407.39	3202.53
407.61	3236.28
407.82	3198.19
408.04	3239.48
408.25	3216.95
408.47	3225.31
408.68	3211.87
408.90	3224.90
409.12	3215.23
409.33	3221.29
409.55	3225.31
409.76	3215.15
409.98	3219.82
410.19	3217.03
410.41	3224.57
410.62	3227.52
410.84	3204.42
411.05	3210.97
411.27	3218.34
411.48	3236.61
411.70	3219.00
411.91	3234.07
412.12	3223.83
412.34	3232.19
412.55	3226.62
412.77	3235.38
412.98	3217.93
413.20	3227.35
413.41	3214.90
413.63	3246.85
413.84	3222.27
414.06	3249.47
414.27	3229.32
414.49	3241.93
414.70	3218.42
414.92	3228.50
415.13	3214.41
415.35	3251.19
415.56	3244.31
415.78	3242.67
415.99	3242.84
416.21	3238.66
416.42	3235.63
416.63	3251.52
416.85	3236.12
417.06	3256.84
417.28	3239.15
417.49	3249.31
417.71	3223.99
417.92	3257.83
418.14	3252.01
418.35	3240.13
418.57	3240.21
418.78	3265.45
418.99	3238.90
419.21	3261.84
419.42	3240.46
419.64	3248.73
419.85	3222.36
420.07	3264.30
420.28	3251.60
420.50	3271.75
420.71	3244.64
420.92	3267.33
421.14	3237.76
421.35	3272.65
421.57	3275.19
421.78	3275.19
422.00	3252.42
422.21	3277.81
422.42	3265.36
422.64	3281.34
422.85	3256.84
423.07	3296.16
423.28	3275.19
423.50	3284.78
423.71	3275.52
423.92	3291.82
424.14	3276.50
424.35	3291.82
424.57	3278.55
424.78	3291.74
424.99	3286.66
425.21	3312.71
425.42	3277.41
425.64	3310.17
425.85	3278.63
426.06	3300.18
426.28	3289.69
426.49	3331.55
426.71	3294.53
426.92	3322.79
427.13	3318.20
427.35	3331.72
427.56	3321.31
427.78	3326.72
427.99	3324.51
428.20	3358.75
428.42	3342.28
428.63	3360.06
428.84	3331.39
429.06	3356.13
429.27	3345.40
429.49	3378.98
429.70	3385.95
429.91	3388.90
430.13	3379.07
430.34	3402.50
430.56	3394.71
430.77	3414.05
430.98	3374.07
431.20	3408.97
431.41	3402.17
431.62	3451.07
431.84	3414.78
432.05	3439.93
432.26	3435.02
432.48	3440.59
432.69	3442.06
432.91	3468.52
433.12	3449.27
433.33	3482.04
433.55	3481.38
433.76	3498.83
433.97	3438.54
434.19	3515.05
434.40	3514.97
434.61	3548.15
434.83	3509.97
435.04	3547.90
435.25	3535.37
435.47	3566.99
435.68	3513.90
435.89	3595.25
436.11	3564.37
436.32	3601.80
436.53	3580.75
436.75	3612.86
436.96	3590.33
437.17	3612.70
437.39	3581.65
437.60	3676.92
437.81	3625.56
438.03	3677.17
438.24	3643.83
438.45	3730.01
438.67	3687.74
438.88	3768.18
439.09	3739.84
439.31	3762.04
439.52	3739.59
439.73	3775.47
439.94	3711.90
440.16	3794.64
440.37	3770.80
440.58	3827.33
440.80	3836.75
441.01	3826.51
441.22	3894.01
441.44	3932.43
441.65	3832.32
441.86	3923.91
442.08	3900.07
442.29	3928.09
442.50	3940.70
442.71	3950.29
442.93	3984.36
443.14	3987.56
443.35	4010.50
443.57	3999.27
443.78	4015.66
443.99	4104.54
444.20	4000.50
444.42	4123.87
444.63	4042.03
444.84	4131.82
445.06	4182.53
445.27	4161.72
445.48	4108.39
445.69	4236.18
445.91	4176.71
446.12	4207.02
446.33	4220.70
446.54	4332.76
446.76	4251.17
446.97	4348.17
447.18	4265.26
447.39	4359.14
447.61	4365.70
447.82	4468.50
448.03	4353.57
448.25	4490.79
448.46	4468.26
448.67	4530.11
448.88	4447.61
449.10	4612.76
449.31	4561.48
449.52	4590.97
449.73	4543.71
449.95	4724.17
450.16	4568.94
450.37	4773.65
450.58	4845.08
450.79	4711.64
451.01	4719.91
451.22	4762.67
451.43	4751.37
451.64	4905.29
451.86	4826.82
452.07	4957.07
452.28	4908.90
452.49	5017.77
452.71	4902.18
452.92	4971.24
453.13	5033.66
453.34	5086.91
453.55	5128.52
453.77	5245.42
453.98	5175.71
454.19	5161.05
454.40	5180.62
454.62	5344.38
454.83	5151.13
455.04	5424.58
455.25	5241.65
455.46	5620.94
455.68	5370.59
455.89	5474.63
456.10	5451.12
456.31	5562.86
456.52	5566.95
456.74	5543.85
456.95	5732.84
457.16	5698.19
457.37	5704.33
457.58	5771.42
457.80	5708.75
458.01	5807.14
458.22	6106.55
458.43	5902.00
458.64	5989.41
458.86	5876.28
459.07	6009.48
459.28	5990.47
459.49	6058.46
459.70	6403.10
459.91	6231.72
460.13	6305.70
460.34	6270.80
460.55	6314.46
460.76	6436.44
460.97	6434.80
461.19	6400.39
461.40	6753.71
461.61	6496.89
461.82	6665.40
462.03	6689.40
462.24	6799.67
462.46	6683.34
462.67	6786.72
462.88	6808.84
463.09	6887.48
463.30	6932.05
463.51	6955.48
463.72	7161.50
463.94	7231.38
464.15	7183.29
464.36	7145.69
464.57	7400.13
464.78	7349.91
464.99	7428.97
465.20	7456.90
465.42	7502.12
465.63	7551.76
465.84	7521.70
466.05	7730.75
466.26	7723.46
466.47	7950.46
466.68	7735.67
466.90	8018.04
467.11	7911.47
467.32	8168.61
467.53	8153.37
467.74	8080.96
467.95	8161.57
468.16	8408.80
468.37	8414.12
468.59	8510.54
468.80	8638.41
469.01	8466.06
469.22	8672.90
469.43	8949.46
469.64	8745.15
469.85	8975.43
470.06	9002.87
470.28	9183.99
470.49	8872.37
470.70	9269.19
470.91	9418.69
471.12	9293.52
471.33	9649.70
471.54	9518.14
471.75	9509.95
471.96	9881.12
472.17	9745.87
472.39	10136.22
472.60	9846.14
472.81	10208.55
473.02	10077.24
473.23	10431.53
473.44	10407.86
473.65	10390.41
473.86	10414.66
474.07	10663.45
474.28	10591.52
474.49	11048.14
474.71	10939.92
474.92	11163.15
475.13	10980.39
475.34	11228.03
475.55	11213.28
475.76	11377.29
475.97	11617.47
476.18	11669.00
476.39	11782.37
476.60	11994.30
476.81	12051.39
477.02	12317.06
477.23	12178.45
477.44	12275.85
477.65	12400.53
477.87	12656.12
478.08	12749.59
478.29	12842.65
478.50	13035.89
478.71	13029.67
478.92	13130.35
479.13	13265.84
479.34	13396.91
479.55	13529.21
479.76	13559.60
479.97	13715.41
480.18	14025.47
480.39	13811.42
480.60	14212.90
480.81	14278.68
481.02	14304.08
481.23	14432.28
481.44	14697.86
481.65	14831.64
481.86	15092.22
482.07	14812.55
482.28	15477.32
482.49	15306.60
482.71	15255.16
482.92	15594.46
483.13	15711.52
483.34	15723.40
483.55	15852.26
483.76	15902.31
483.97	16141.84
484.18	16222.94
484.39	16406.52
484.60	16438.47
484.81	16680.62
485.02	16688.32
485.23	16943.99
485.44	17064.41
485.65	17233.41
485.86	17204.25
486.07	17605.90
486.28	17550.76
486.49	17738.85
486.70	17840.43
486.91	18100.44
487.12	18098.88
487.33	18006.31
487.54	18432.54
487.75	18565.82
487.96	18685.67
488.17	18634.47
488.38	18995.24
488.59	18912.09
488.80	19101.90
489.01	19067.16
489.22	19462.67
489.43	19408.76
489.64	19364.94
489.85	19871.11
490.06	19626.67
490.26	19863.66
490.47	19938.29
490.68	20225.41
490.89	20524.09
491.10	20120.72
491.31	20591.67
491.52	20707.42
491.73	20755.18
491.94	20666.05
492.15	21046.73
492.36	21173.54
492.57	21185.75
492.78	21186.56
492.99	21315.09
493.20	21525.79
493.41	21550.37
493.62	21706.67
493.83	21698.23
494.04	21856.74
494.25	22217.43
494.46	22081.53
494.67	22028.44
494.88	22255.85
495.08	22457.37
495.29	22505.95
495.50	22814.70
495.71	22663.56
495.92	22937.66
496.13	22932.83
496.34	22889.00
496.55	23010.81
496.76	23522.97
496.97	23006.64
497.18	23518.05
497.39	23385.26
497.60	23826.56
497.81	23480.13
498.02	23799.94
498.22	23635.53
498.43	24114.67
498.64	24147.03
498.85	24195.11
499.06	24232.96
499.27	24629.53
499.48	24114.18
499.69	24397.37
499.90	24535.08
500.11	24750.93
500.32	25130.79
500.52	24701.62
500.73	25286.52
500.94	25387.44
501.15	25356.56
501.36	25449.86
501.57	25273.74
501.78	25517.04
501.99	25800.23
502.20	25840.20
502.41	25825.62
502.61	25820.30
502.82	26118.97
503.03	25945.63
503.24	26269.79
503.45	26172.79
503.66	26462.05
503.87	26494.00
504.08	26657.67
504.28	26536.84
504.49	26681.51
504.70	26884.01
504.91	27081.93
505.12	26813.24
505.33	27124.28
505.54	27259.69
505.75	27280.99
505.95	27490.29
506.16	27342.02
506.37	27223.65
506.58	27817.56
506.79	27338.83
507.00	27946.66
507.21	27599.16
507.41	27768.90
507.62	27800.85
507.83	28280.07
508.04	27983.85
508.25	28246.24
508.46	28147.36
508.67	28533.86
508.87	28353.96
509.08	28623.31
509.29	28612.17
509.50	28806.07
509.71	28764.79
509.92	28976.38
510.12	28785.43
510.33	28990.88
510.54	28994.49
510.75	29065.67
510.96	29481.41
511.17	29517.70
511.37	29573.24
511.58	29746.66
511.79	29532.53
512.00	29619.85
512.21	29954.74
512.42	29918.04
512.62	30102.03
512.83	30323.62
513.04	30131.85
513.25	30394.64
513.46	29848.98
513.66	30757.21
513.87	30452.48
514.08	30818.41
514.29	30606.57
514.50	30704.29
514.71	31059.82
514.91	30823.90
515.12	30884.76
515.33	31174.92
515.54	31148.95
515.75	31533.72
515.95	31243.98
516.16	31315.24
516.37	31694.77
516.58	31829.28
516.78	31684.21
516.99	31859.02
517.20	31904.40
517.41	31958.06
517.62	32026.95
517.82	32043.50
518.03	32525.68
518.24	32817.47
518.45	32288.93
518.66	32646.75
518.86	32378.30
519.07	32805.35
519.28	32257.39
519.49	32938.79
519.69	32951.57
519.90	33061.18
520.11	33174.96
520.32	33135.48
520.52	33358.54
520.73	33132.04
520.94	33628.63
521.15	33519.60
521.36	33323.24
521.56	33994.07
521.77	33506.82
521.98	34032.74
522.19	33770.68
522.39	34062.14
522.60	33958.19
522.81	34040.19
523.02	33930.58
523.22	34382.28
523.43	34521.79
523.64	34466.66
523.84	34485.09
524.05	34800.23
524.26	34888.13
524.47	34652.12
524.67	34802.61
524.88	34916.97
525.09	35289.29
525.30	35002.08
525.50	34983.07
525.71	35201.31
525.92	35287.16
526.13	35556.42
526.33	35404.63
526.54	35164.20
526.75	35471.56
526.95	35860.67
527.16	35242.27
527.37	35785.06
527.58	35923.67
527.78	35950.29
527.99	36264.20
528.20	36464.98
528.40	36248.47
528.61	36145.75
528.82	36474.90
529.03	36468.18
529.23	36450.32
529.44	36704.52
529.65	36833.29
529.85	36882.52
530.06	36954.78
530.27	36992.87
530.47	36514.46
530.68	37455.96
530.89	36738.10
531.09	37332.09
531.30	37345.78
531.51	36920.53
531.72	37613.90
531.92	37493.97
532.13	37767.08
532.34	37662.23
532.54	37718.92
532.75	37806.81
532.96	37825.82
533.16	38000.96
533.37	38185.03
533.58	37974.58
533.78	38392.86
533.99	38448.97
534.20	38052.16
534.40	38361.90
534.61	38500.26
534.82	38667.12
535.02	38656.23
535.23	38608.63
535.44	38893.55
535.64	38605.28
535.85	38984.56
536.06	38920.50
536.26	38910.10
536.47	38972.44
536.68	39614.27
536.88	38938.93
537.09	39568.56
537.29	39022.57
537.50	39791.30
537.71	39283.89
537.91	39594.04
538.12	39859.21
538.33	39534.48
538.53	39728.79
538.74	39843.07
538.95	39844.95
539.15	39816.77
539.36	40033.94
539.56	40304.11
539.77	40034.27
539.98	40106.93
540.18	40391.51
540.39	40170.09
540.60	40476.96
540.80	40638.50
541.01	40605.98
541.21	40583.12
541.42	40755.40
541.63	40701.90
541.83	40991.24
542.04	40856.73
542.25	40834.78
542.45	41110.27
542.66	41201.61
542.86	41396.25
543.07	40518.57
543.28	41412.14
543.48	41282.95
543.69	41502.82
543.89	41324.90
544.10	41956.08
544.31	41621.20
544.51	41665.60
544.72	41726.22
544.92	41633.73
545.13	42081.91
545.33	41928.06
545.54	41771.93
545.75	42158.99
545.95	41924.95
546.16	42073.39
546.36	42693.76
546.57	41668.87
546.78	40849.60
546.98	41487.01
547.19	40767.36
547.39	41965.01
547.60	42352.40
547.80	42918.87
548.01	42900.77
548.22	42580.30
548.42	42616.02
548.63	42934.19
548.83	42858.50
549.04	43149.80
549.24	42827.78
549.45	42962.04
549.65	43440.20
549.86	42756.51
550.07	43116.87
550.27	43494.35
550.48	43562.59
550.68	43390.89
550.89	43286.69
551.09	43728.72
551.30	43523.35
551.50	43887.89
551.71	43562.34
551.91	43555.87
552.12	43706.77
552.33	44047.71
552.53	43738.63
552.74	44249.23
552.94	44456.73
553.15	44141.59
553.35	44412.58
553.56	43947.12
553.76	44428.88
553.97	44101.94
554.17	44268.65
554.38	44766.63
554.58	44297.24
554.79	44800.95
554.99	44319.19
555.20	44420.20
555.40	45064.24
555.61	44721.58
555.81	44351.55
556.02	45326.55
556.22	45174.18
556.43	45029.51
556.63	45153.53
556.84	44972.00
557.04	45523.48
557.25	44883.94
557.45	45245.28
557.66	45256.10
557.86	45211.78
558.07	45724.67
558.27	45383.40
558.48	45532.90
558.68	45529.38
558.89	45724.34
559.09	45729.34
559.30	45509.63
559.50	45858.61
559.71	45439.27
559.91	46060.46
560.12	45794.22
560.32	45826.66
560.53	46043.42
560.73	45694.69
560.94	46255.75
561.14	45748.35
561.35	46479.72
561.55	46071.11
561.76	46277.29
561.96	45866.64
562.17	46279.01
562.37	46546.56
562.57	46273.61
562.78	46188.58
562.98	46539.19
563.19	46617.01
563.39	46769.87
563.60	46834.92
563.80	46476.36
564.01	47001.13
564.21	46684.59
564.42	46678.29
564.62	46886.20
564.82	47132.53
565.03	46858.84
565.23	47046.35
565.44	47168.98
565.64	46831.47
565.85	47328.48
566.05	47087.72
566.25	47446.44
566.46	46990.23
566.66	47308.57
566.87	47414.98
567.07	47375.09
567.28	47394.91
567.48	47726.36
567.68	47068.38
567.89	47942.46
568.09	47493.54
568.30	47419.41
568.50	47962.85
568.71	47620.27
568.91	47962.69
569.11	47746.92
569.32	47729.80
569.52	47945.73
569.73	47419.90
569.93	48103.43
570.13	47895.76
570.34	47895.11
570.54	48245.39
570.75	47967.28
570.95	48096.38
571.15	47966.05
571.36	48550.95
571.56	48117.11
571.77	48057.96
571.97	47705.30
572.17	48454.45
572.38	48357.78
572.58	48642.70
572.79	48392.76
572.99	48560.37
573.19	48512.20
573.40	48475.26
573.60	48637.95
573.81	48450.93
574.01	48668.34
574.21	48689.56
574.42	48721.75
574.62	48514.58
574.82	49043.85
575.03	48745.34
575.23	49149.37
575.43	48862.49
575.64	48836.68
575.84	49246.03
576.05	48749.27
576.25	49084.57
576.45	48913.11
576.66	49552.49
576.86	49075.07
577.06	49511.77
577.27	49414.78
577.47	49466.23
577.67	49292.72
577.88	48810.22
578.08	49661.19
578.28	49513.33
578.49	49443.95
578.69	49632.60
578.89	49292.97
579.10	49451.48
579.30	50048.51
579.50	49528.40
579.71	49353.84
579.91	49953.89
580.11	49607.78
580.32	49685.85
580.52	49607.70
580.72	50202.10
580.93	49761.71
581.13	49796.20
581.33	50223.24
581.54	49773.01
581.74	49898.43
581.94	50019.34
582.15	50272.72
582.35	50042.69
582.55	50030.40
582.76	49844.86
582.96	50417.71
583.16	50106.01
583.37	50339.89
583.57	50120.35
583.77	50600.15
583.97	49756.96
584.18	50727.04
584.38	50592.61
584.58	50244.29
584.79	50637.34
584.99	50597.12
585.19	50574.75
585.40	50422.14
585.60	50846.56
585.80	50290.41
586.00	50620.54
586.21	50617.76
586.41	50698.61
586.61	50966.57
586.82	50769.72
587.02	50841.32
587.22	51077.57
587.42	50628.08
587.63	51264.84
587.83	50612.11
588.03	51003.92
588.23	50726.55
588.44	51060.28
588.64	50785.20
588.84	51038.99
589.05	51202.25
589.25	51351.01
589.45	51296.62
589.65	51049.64
589.86	51328.24
590.06	51460.29
590.26	51126.88
590.46	51528.04
590.67	50862.94
590.87	51477.66
591.07	51759.54
591.27	51283.35
591.48	51812.79
591.68	51242.23
591.88	52182.16
592.08	51336.68
592.29	51938.78
592.49	51663.21
592.69	52062.23
592.89	51712.77
593.10	51751.84
593.30	51576.70
593.50	52145.30
593.70	51220.60
593.90	52116.46
594.11	51997.68
594.31	52004.64
594.51	52263.18
594.71	52319.46
594.92	52314.87
595.12	51977.28
595.32	52082.14
595.52	52415.22
595.72	51722.68
595.93	52478.71
596.13	52236.56
596.33	51884.71
596.53	52472.24
596.73	52313.23
596.94	52223.45
597.14	52572.75
597.34	52345.51
597.54	52770.58
597.74	52261.30
597.95	52444.71
598.15	52447.25
598.35	52632.39
598.55	52652.46
598.75	52404.98
598.96	53057.22
599.16	52592.49
599.36	52756.74
599.56	52625.59
599.76	52600.77
599.97	53127.50
600.17	52870.53
600.37	52948.10
600.57	52084.19
600.77	53237.68
600.97	52823.09
601.18	53422.66
601.38	52952.36
601.58	53141.27
601.78	53108.91
601.98	52692.68
602.18	53157.08
602.39	53452.23
602.59	53242.35
602.79	53129.88
602.99	53149.05
603.19	53318.78
603.39	53213.76
603.60	53260.46
603.80	53295.85
604.00	53337.05
604.20	53467.79
604.40	53579.61
604.60	53324.52
604.80	53283.07
605.01	53629.26
605.21	53520.63
605.41	53512.44
605.61	53120.95
605.81	53589.69
606.01	53917.77
606.21	53362.69
606.42	53731.16
606.62	53476.97
606.82	53979.46
607.02	53640.07
607.22	53858.14
607.42	54098.73
607.62	53341.15
607.82	53743.45
608.03	53709.70
608.23	53589.61
608.43	53339.18
608.63	53962.75
608.83	53932.36
609.03	53899.83
609.23	54050.40
609.43	54201.38
609.63	53902.54
609.84	53808.33
610.04	54379.88
610.24	54246.84
610.44	54155.17
610.64	53879.19
610.84	54126.26
611.04	54370.05
611.24	54208.83
611.44	53581.91
611.64	54103.16
611.85	54077.02
612.05	54159.03
612.25	54242.34
612.45	53876.08
612.65	54119.21
612.85	54263.72
613.05	54028.28
613.25	54523.48
613.45	54366.69
613.65	54285.10
613.85	53941.04
614.05	54365.30
614.25	54592.38
614.46	54335.64
614.66	54313.03
614.86	54098.65
615.06	54371.77
615.26	54715.17
615.46	53878.70
615.66	54758.92
615.86	54621.37
616.06	54323.11
616.26	54333.35
616.46	54981.00
616.66	54480.15
616.86	54957.24
617.06	54547.07
617.26	55070.29
617.46	54657.34
617.66	54534.21
617.86	54338.26
618.07	54724.10
618.27	54572.63
618.47	54689.69
618.67	54849.44
618.87	54903.67
619.07	54669.95
619.27	54488.67
619.47	54631.70
619.67	55030.64
619.87	54557.81
620.07	55026.79
620.27	54892.36
620.47	54570.26
620.67	54757.69
620.87	54776.77
621.07	54919.23
621.27	54880.65
621.47	54486.86
621.67	54960.44
621.87	54582.05
622.07	55244.28
622.27	54923.25
622.47	54716.89
622.67	54971.33
622.87	54552.81
623.07	54956.34
623.27	55379.94
623.47	54428.70
623.67	54920.30
623.87	55152.45
624.07	55012.29
624.27	54535.28
624.47	54823.71
624.67	54568.70
624.87	54976.82
625.07	54590.08
625.27	55132.71
625.47	54810.69
625.67	54714.11
625.87	55052.76
626.07	54952.82
626.27	55272.96
626.47	55178.50
626.67	54961.42
626.87	54689.94
627.07	55260.59
627.27	55111.33
627.47	55340.62
627.67	55052.02
627.87	54985.42
628.07	55472.43
628.27	55141.23
628.47	54814.62
628.67	55407.38
628.86	55431.22
629.06	55091.92
629.26	54886.22
629.46	55308.59
629.66	55357.50
629.86	54726.64
630.06	55326.29
630.26	55129.68
630.46	55666.49
630.66	55127.71
630.86	55156.14
631.06	55249.20
631.26	54958.88
631.46	55560.90
631.66	55322.35
631.86	55160.89
632.06	55518.96
632.26	55169.90
632.45	55229.70
632.65	55282.62
632.85	55482.18
633.05	55343.98
633.25	55409.51
633.45	55072.58
633.65	55232.08
633.85	55769.55
634.05	54939.30
634.25	55209.63
634.45	55265.50
634.65	55788.23
634.84	55301.14
635.04	55458.01
635.24	55068.81
635.44	55467.19
635.64	54992.96
635.84	55542.31
636.04	55313.59
636.24	55246.66
636.44	55428.36
636.64	54798.16
636.84	55665.10
637.03	54934.14
637.23	55278.44
637.43	55374.37
637.63	55045.71
637.83	55488.32
638.03	55422.13
638.23	55055.87
638.43	55442.20
638.62	55769.14
638.82	54728.52
639.02	55500.36
639.22	55214.63
639.42	55556.80
639.62	55220.94
639.82	55358.64
640.02	55399.93
640.21	55687.55
640.41	54977.23
640.61	55483.65
640.81	55279.51
641.01	55307.28
641.21	55104.29
641.41	55811.65
641.61	55276.56
641.80	55372.57
642.00	55766.84
642.20	55649.70
642.40	54965.43
642.60	55502.08
642.80	55597.35
642.99	55182.60
643.19	55669.36
643.39	55175.55
643.59	55473.98
643.79	55250.84
643.99	55643.07
644.19	55609.89
644.38	55015.90
644.58	55530.10
644.78	55242.07
644.98	55282.70
645.18	55660.76
645.38	55808.70
645.57	55219.05
645.77	55409.68
645.97	55071.44
646.17	55584.41
646.37	55454.82
646.56	55393.87
646.76	55559.59
646.96	55427.21
647.16	55311.62
647.36	55616.36
647.55	55374.95
647.75	55724.33
647.95	55216.27
648.15	55636.68
648.35	55517.07
648.55	55612.59
648.74	55356.76
648.94	55485.78
649.14	55870.55
649.34	55436.96
649.54	55293.11
649.73	55425.82
649.93	55180.39
650.13	55411.40
650.33	55159.17
650.52	55662.97
650.72	55826.24
650.92	55351.52
651.12	55131.89
651.32	55454.49
651.51	55631.51
651.71	55604.07
651.91	55304.66
652.11	55081.68
652.30	55116.41
652.50	55554.27
652.70	55572.04
652.90	55156.71
653.10	55450.56
653.29	55224.71
653.49	55605.55
653.69	55012.13
653.89	55275.00
654.08	55241.17
654.28	55558.12
654.48	55324.48
654.68	55514.29
654.87	55358.15
655.07	55009.75
655.27	55517.32
655.47	55086.18
655.66	55186.20
655.86	55032.69
656.06	55593.34
656.26	54879.42
656.45	55280.25
656.65	55373.06
656.85	55121.41
657.04	54962.89
657.24	54947.17
657.44	54856.07
657.64	55516.17
657.83	54710.83
658.03	55382.97
658.23	55351.68
658.43	55097.08
658.62	55104.04
658.82	55011.72
659.02	54894.08
659.21	55001.15
659.41	54592.29
659.61	55348.98
659.81	54888.35
660.00	54628.83
660.20	54980.26
660.40	54730.98
660.59	54971.50
660.79	54492.84
660.99	55115.02
661.19	54991.40
661.38	55020.73
661.58	54361.53
661.78	54787.34
661.97	54471.38
662.17	55326.53
662.37	54588.85
662.56	54683.88
662.76	54635.30
662.96	54802.74
663.15	54828.55
663.35	54860.82
663.55	54409.12
663.74	54317.05
663.94	54780.62
664.14	54282.39
664.33	54692.89
664.53	54288.13
664.73	54860.25
664.93	54096.11
665.12	54782.84
665.32	54511.85
665.52	54612.85
665.71	54433.04
665.91	54567.88
666.10	54361.69
666.30	54695.51
666.50	54193.19
666.69	54271.09
666.89	54619.82
667.09	54957.32
667.28	54458.03
667.48	54210.72
667.68	54346.29
667.87	54337.12
668.07	54020.01
668.27	54710.34
668.46	54669.54
668.66	54454.51
668.86	54796.60
669.05	54363.58
669.25	54685.93
669.44	54407.73
669.64	54232.26
669.84	54268.71
670.03	54738.44
670.23	54275.43
670.43	54302.63
670.62	54316.06
670.82	54154.19
671.01	54452.87
671.21	54111.92
671.41	54133.55
671.60	54428.46
671.80	54537.41
672.00	54308.77
672.19	54549.37
672.39	54467.45
672.58	54226.61
672.78	54188.76
672.98	54717.96
673.17	54351.70
673.37	53770.24
673.56	54172.13
673.76	54247.17
673.96	54547.32
674.15	54303.04
674.35	54435.58
674.54	54143.30
674.74	54180.08
674.94	54107.83
675.13	54276.91
675.33	53771.63
675.52	54431.40
675.72	54299.68
675.91	54236.93
676.11	54588.20
676.31	53848.55
676.50	54086.04
676.70	54103.57
676.89	54266.67
677.09	54465.48
677.28	54309.35
677.48	53655.72
677.68	54233.74
677.87	53782.69
678.07	53893.69
678.26	53863.54
678.46	54095.21
678.65	53815.21
678.85	54194.66
679.04	53594.77
679.24	53967.99
679.44	53606.07
679.63	53919.90
679.83	53794.73
680.02	53745.42
680.22	53454.28
680.41	53755.41
680.61	53532.67
680.80	53498.19
681.00	53716.75
681.19	53718.71
681.39	53420.20
681.59	53551.76
681.78	53509.98
681.98	53800.38
682.17	53215.48
682.37	53555.12
682.56	53191.56
682.76	53627.54
682.95	53320.42
683.15	53455.10
683.34	53228.26
683.54	53392.76
683.73	53478.12
683.93	52884.21
684.12	53373.59
684.32	53585.92
684.51	52926.07
684.71	53322.88
684.90	53246.45
685.10	53202.95
685.29	53115.46
685.49	53137.83
685.68	53305.35
685.88	53117.59
686.07	52805.15
686.27	53405.54
686.46	53133.89
686.66	52927.29
686.85	53195.74
687.05	52968.66
687.24	52896.98
687.44	53284.79
687.63	53180.01
687.83	52558.50
688.02	53140.12
688.22	53199.67
688.41	52983.74
688.61	53065.82
688.80	53149.62
689.00	52649.43
689.19	52564.80
689.39	53217.37
689.58	52993.08
689.77	52861.84
689.97	52923.44
690.16	52774.02
690.36	52396.95
690.55	52324.21
690.75	53067.70
690.94	52620.26
691.14	52913.86
691.33	52247.86
691.53	52790.41
691.72	52438.73
691.91	52632.31
692.11	52565.13
692.30	52751.74
692.50	52776.15
692.69	52262.11
692.89	52442.17
693.08	52336.33
693.28	52201.82
693.47	52483.05
693.66	52392.20
693.86	52310.28
694.05	52169.14
694.25	52067.56
694.44	52212.23
694.64	52162.34
694.83	52091.72
695.02	52061.74
695.22	52332.32
695.41	52048.06
695.61	51915.52
695.80	52092.71
695.99	51812.30
696.19	52033.07
696.38	51986.79
696.58	51412.29
696.77	52201.58
696.96	52141.20
697.16	51828.93
697.35	51830.08
697.55	51765.11
697.74	51533.04
697.93	52071.49
698.13	51572.93
698.32	51892.91
698.52	51688.68
698.71	51152.93
698.90	52197.40
699.10	51496.67
699.29	51604.63
699.49	51942.80
699.68	51442.76
699.87	51252.38
700.07	51739.64
700.26	51327.67
700.45	51231.90
700.65	51093.30
700.84	51555.97
701.04	51084.12
701.23	51447.51
701.42	51193.81
701.62	51130.16
701.81	51198.97
702.00	51113.53
702.20	50676.82
702.39	50944.12
702.58	51255.33
702.78	50806.25
702.97	50865.73
703.17	51008.59
703.36	50918.73
703.55	50718.68
703.75	50632.83
703.94	50915.29
704.13	50473.42
704.33	50481.94
704.52	50968.95
704.71	50824.69
704.91	50728.35
705.10	50359.63
705.29	50412.80
705.49	50603.67
705.68	50607.03
705.87	50599.57
706.07	50037.28
706.26	50718.19
706.45	49982.73
706.65	49970.03
706.84	50576.88
707.03	50821.90
707.23	49978.55
707.42	49923.09
707.61	50424.84
707.80	50001.48
708.00	49966.91
708.19	50001.89
708.38	50544.03
708.58	49700.60
708.77	50400.76
708.96	49771.87
709.16	49565.76
709.35	50513.23
709.54	49929.97
709.74	49773.83
709.93	49379.80
710.12	50329.57
710.31	50521.42
710.51	49994.60
710.70	49934.07
710.89	50053.26
711.09	49427.73
711.28	49528.57
711.47	49788.41
711.66	49611.06
711.86	49506.04
712.05	49589.68
712.24	49849.28
712.43	49547.98
712.63	48998.96
712.82	49702.48
713.01	49526.85
713.21	49037.71
713.40	49178.77
713.59	49609.26
713.78	48804.41
713.98	49509.07
714.17	49056.06
714.36	49175.17
714.55	48553.41
714.75	48906.89
714.94	49023.13
715.13	49130.85
715.32	48589.12
715.52	48866.50
715.71	48403.74
715.90	48718.88
716.09	48565.94
716.29	48979.38
716.48	48881.74
716.67	48221.80
716.86	48584.62
717.06	48614.19
717.25	48582.08
717.44	48771.07
717.63	48632.46
717.82	48134.80
718.02	48286.35
718.21	48458.71
718.40	48564.63
718.59	48253.26
718.79	48061.89
718.98	47915.83
719.17	48302.41
719.36	48281.19
719.55	47989.56
719.75	47867.42
719.94	47797.46
720.13	48165.11
720.32	47931.40
720.51	47621.58
720.71	47760.60
720.90	47308.82
721.09	47643.54
721.28	47383.61
721.47	47997.83
721.67	47723.57
721.86	47606.51
722.05	47569.07
722.24	47037.83
722.43	47562.93
722.63	47127.28
722.82	47210.27
723.01	47405.56
723.20	47028.41
723.39	46984.99
723.58	47489.53
723.78	46807.39
723.97	47588.73
724.16	46955.58
724.35	47110.57
724.54	46732.11
724.73	47119.42
724.93	46677.80
725.12	47063.47
725.31	46226.10
725.50	46761.52
725.69	46992.61
725.88	46552.71
726.08	46154.58
726.27	46807.72
726.46	45948.96
726.65	47036.11
726.84	46262.39
727.03	46432.12
727.23	46780.44
727.42	46205.37
727.61	46190.21
727.80	46041.37
727.99	46157.28
728.18	46190.05
728.37	45884.82
728.56	45741.55
728.76	45689.45
728.95	45963.46
729.14	45883.27
729.33	45804.62
729.52	45924.55
729.71	46041.12
729.90	45972.23
730.09	45673.39
730.29	45921.28
730.48	45317.70
730.67	45938.72
730.86	45508.90
731.05	45863.93
731.24	45481.95
731.43	45600.97
731.62	45264.53
731.81	45243.97
732.01	45802.25
732.20	45293.29
732.39	45643.82
732.58	45521.51
732.77	44753.77
732.96	45330.48
733.15	45546.17
733.34	45055.15
733.53	45243.73
733.72	45266.91
733.92	45083.74
734.11	44988.47
734.30	45080.38
734.49	45302.95
734.68	44976.02
734.87	44867.31
735.06	44878.20
735.25	44835.77
735.44	44736.32
735.63	44853.30
735.82	44919.90
736.01	44541.93
736.20	44615.65
736.40	44902.21
736.59	44721.17
736.78	44837.33
736.97	44349.66
737.16	44357.77
737.35	44510.96
737.54	44368.92
737.73	44209.01
737.92	44296.01
738.11	44605.01
738.30	44159.29
738.49	44099.57
738.68	44111.28
738.87	44378.83
739.06	43970.13
739.25	44117.10
739.44	44034.77
739.63	43909.35
739.82	43595.68
740.01	44101.70
740.20	43641.64
740.39	43822.03
740.59	43748.05
740.78	43927.78
740.97	43610.59
741.16	43482.72
741.35	43689.24
741.54	43528.02
741.73	43667.85
741.92	43394.98
742.11	43341.74
742.30	43568.32
742.49	43026.92
742.68	43453.96
742.87	43275.79
743.06	42958.03
743.25	43358.12
743.44	43120.64
743.63	43325.02
743.82	43050.60
744.01	42939.43
744.20	42762.65
744.39	43062.39
744.58	42969.09
744.77	42700.89
744.96	42544.91
745.15	42813.28
745.34	42613.56
745.53	42770.76
745.72	42512.23
745.91	42498.96
746.10	42185.86
746.29	42629.21
746.48	42712.03
746.67	42541.96
746.86	42635.92
747.04	42454.47
747.23	42270.16
747.42	42493.06
747.61	42094.44
747.80	42626.59
747.99	41896.20
748.18	42326.76
748.37	42310.30
748.56	41650.93
748.75	42040.70
748.94	42018.91
749.13	41989.83
749.32	41680.10
749.51	41858.19
749.70	41871.05
749.89	41654.13
750.08	41753.90
750.27	41312.94
750.46	41523.80
750.65	42115.82
750.84	41302.37
751.02	41593.59
751.21	41389.12
751.40	41621.28
751.59	41574.58
751.78	41455.56
751.97	41447.36
752.16	41147.79
752.35	41512.98
752.54	40967.65
752.73	41401.41
752.92	40989.68
753.11	40998.78
753.30	41214.55
753.49	41335.55
753.67	41104.21
753.86	40801.93
754.05	41155.08
754.24	40754.82
754.43	40965.68
754.62	41046.95
754.81	40777.02
755.00	40869.35
755.19	40895.81
755.38	40388.32
755.56	40843.95
755.75	41100.93
755.94	40767.44
756.13	40557.24
756.32	40720.99
756.51	40265.93
756.70	40569.44
756.89	40522.42
757.08	40462.95
757.26	40555.52
757.45	40562.48
757.64	40157.23
757.83	40707.97
758.02	40236.28
758.21	40291.16
758.40	40371.94
758.59	40419.78
758.77	40000.11
758.96	40225.96
759.15	40286.66
759.34	39994.13
759.53	40034.43
759.72	40126.43
759.91	39653.43
760.09	39903.44
760.28	39907.05
760.47	39586.91
760.66	40033.37
760.85	39550.29
761.04	39959.31
761.23	39980.20
761.41	39716.83
761.60	39998.06
761.79	39668.01
761.98	39492.13
762.17	39780.24
762.36	39246.37
762.54	39609.85
762.73	39446.34
762.92	39217.86
763.11	39774.67
763.30	39568.48
763.49	39448.38
763.67	39248.09
763.86	39282.17
764.05	39452.48
764.24	39317.31
764.43	39624.92
764.61	39157.00
764.80	39167.16
764.99	39714.46
765.18	39013.15
765.37	39311.42
765.55	39272.91
765.74	39055.83
765.93	38830.39
766.12	39176.41
766.31	38994.88
766.49	39231.95
766.68	39324.19
766.87	39256.12
767.06	38858.81
767.25	39176.33
767.43	39170.84
767.62	39081.47
767.81	39011.84
768.00	38949.33
768.19	38652.87
768.37	38965.06
768.56	38795.90
768.75	39043.71
768.94	39129.06
769.12	38851.36
769.31	38720.37
769.50	38818.26
769.69	38931.23
769.88	38431.61
770.06	39231.22
770.25	38773.78
770.44	38561.61
770.63	38919.76
770.81	38610.11
771.00	38583.98
771.19	38556.62
771.38	38615.27
771.56	38749.78
771.75	38107.13
771.94	38486.41
772.13	38542.77
772.31	38056.34
772.50	38595.45
772.69	38183.39
772.88	38719.63
773.06	38046.51
773.25	38387.04
773.44	38318.40
773.62	38240.82
773.81	38273.50
774.00	38124.41
774.19	38031.84
774.37	38040.77
774.56	38382.13
774.75	37826.64
774.94	38111.88
775.12	37901.92
775.31	37949.93
775.50	38088.37
775.68	37957.22
775.87	37900.45
776.06	37728.42
776.25	38058.22
776.43	37791.90
776.62	38182.25
776.81	37696.47
776.99	37989.90
777.18	37849.17
777.37	37478.65
777.55	37688.85
777.74	37814.84
777.93	37670.50
778.12	37784.37
778.30	37303.10
778.49	37549.83
778.68	37659.69
778.86	37569.99
779.05	37761.92
779.24	37915.44
779.42	37580.14
779.61	37375.84
779.80	37518.38
779.98	37850.23
780.17	37686.07
780.36	37334.22
780.54	37784.12
780.73	37087.57
780.92	37619.71
781.10	37430.89
781.29	37332.01
781.48	37314.73
781.66	37227.89
781.85	37601.28
782.04	37232.40
782.22	37374.45
782.41	36996.06
782.60	37271.80
782.78	37228.47
782.97	37528.78
783.16	36913.82
783.34	36946.67
783.53	37121.15
783.71	36990.66
783.90	36996.88
784.09	37078.15
784.27	37045.87
784.46	36963.54
784.65	36993.93
784.83	36801.02
785.02	36779.31
785.20	37192.10
785.39	36364.88
785.58	37150.40
785.76	36840.17
785.95	36813.06
786.14	36832.88
786.32	36920.21
786.51	36675.84
786.69	37084.54
786.88	36787.09
787.07	36814.20
787.25	36801.51
787.44	36906.36
787.62	36756.62
787.81	37042.68
788.00	36854.18
788.18	36831.57
788.37	36623.09
788.55	37322.43
788.74	36783.48
788.93	37072.90
789.11	37389.27
789.30	37068.97
789.48	36736.14
789.67	37207.00
789.86	36916.52
790.04	37096.33
790.23	36925.70
790.41	36941.67
790.60	37049.47
790.78	37122.46
790.97	36670.03
791.16	37170.88
791.34	37462.67
791.53	36839.84
791.71	37347.50
791.90	37033.34
792.08	37241.33
792.27	37253.62
792.46	37131.31
792.64	37437.20
792.83	37157.12
793.01	37304.57
793.20	37293.35
793.38	37317.35
793.57	37352.74
793.75	37484.96
793.94	37460.71
794.12	37875.71
794.31	37366.25
794.50	37665.50
794.68	37927.73
794.87	37807.47
795.05	37882.02
795.24	37824.02
795.42	37719.08
795.61	38322.00
795.79	38151.04
795.98	37922.40
796.16	38134.24
796.35	38205.76
796.53	37861.21
796.72	38370.50
796.90	38219.52
797.09	38357.72
797.27	38126.46
797.46	38131.70
797.64	38298.49
797.83	38318.56
798.01	38271.62
798.20	38481.01
798.38	38051.51
798.57	38375.00
798.75	38092.46
798.94	37797.97
799.12	38747.49
799.31	38396.30
799.49	38356.41
799.68	38285.14
799.86	38148.74
800.05	38315.04
800.23	38244.42
800.42	38150.54
800.60	38509.43
800.79	38142.52
800.97	38317.17
801.16	38767.97
801.34	38113.11
801.53	38341.91
801.71	38504.68
801.90	38256.63
802.08	38561.94
802.27	38540.97
802.45	38155.95
802.64	38643.37
802.82	38621.00
803.00	38283.34
803.19	38529.09
803.37	38993.90
803.56	38432.10
803.74	38618.63
803.93	38587.01
804.11	38580.86
804.30	38253.52
804.48	38626.17
804.67	38590.37
804.85	38541.13
805.03	38741.67
805.22	38422.68
805.40	38227.63
805.59	38606.01
805.77	38498.21
805.96	38374.02
806.14	38340.60
806.32	38576.60
806.51	38826.78
806.69	38570.79
806.88	38418.66
807.06	38412.77
807.25	38295.46
807.43	38522.95
807.61	38404.00
807.80	38328.55
807.98	38451.43
808.17	38222.63
808.35	38004.81
808.53	38566.20
808.72	38125.15
808.90	38232.05
809.09	38333.39
809.27	38428.99
809.45	37975.16
809.64	38432.35
809.82	38110.90
810.01	38244.67
810.19	38313.40
810.37	38187.00
810.56	37996.46
810.74	38412.85
810.93	37877.92
811.11	38096.97
811.29	37907.33
811.48	38062.97
811.66	37907.98
811.84	37859.73
812.03	37718.59
812.21	37815.33
812.40	37944.27
812.58	38286.12
812.76	37866.61
812.95	38275.23
813.13	37618.56
813.31	37996.62
813.50	37929.04
813.68	37918.55
813.86	37905.20
814.05	38027.83
814.23	37438.83
814.42	37859.49
814.60	37487.66
814.78	37841.22
814.97	37693.19
815.15	37640.44
815.33	37671.40
815.52	37598.33
815.70	37548.03
815.88	37740.71
816.07	37237.48
816.25	37663.70
816.43	37510.92
816.62	37046.94
816.80	37445.39
816.98	37347.41
817.17	37233.96
817.35	37429.25
817.53	37364.94
817.72	37556.80
817.90	36982.55
818.08	37307.76
818.26	37436.70
818.45	37149.01
818.63	37352.66
818.81	37500.27
819.00	36946.67
819.18	37602.26
819.36	37373.87
819.55	37521.25
819.73	37087.57
819.91	37523.21
820.09	37128.77
820.28	37544.51
820.46	37005.08
820.64	37598.90
820.83	37041.61
821.01	37252.55
821.19	36936.59
821.38	37214.30
821.56	36919.31
821.74	37317.51
821.92	36790.45
822.11	37315.63
822.29	36572.46
822.47	36734.66
822.65	36751.86
822.84	36969.28
823.02	36530.36
823.20	37106.65
823.39	36372.99
823.57	36551.33
823.75	36506.35
823.93	36535.52
824.12	36445.90
824.30	36398.96
824.48	36257.65
824.66	36693.13
824.85	35650.30
825.03	36441.80
825.21	36538.47
825.39	36322.28
825.58	36302.62
825.76	36214.80
825.94	36196.13
826.12	36174.99
826.31	35820.53
826.49	36022.38
826.67	36116.99
826.85	35989.36
827.03	36059.49
827.22	36306.96
827.40	35946.36
827.58	36051.30
827.76	36059.49
827.95	35815.70
828.13	35858.21
828.31	35937.67
828.49	35969.21
828.67	35893.36
828.86	35688.97
829.04	35939.72
829.22	35623.02
829.40	35749.59
829.58	35526.44
829.77	35686.67
829.95	35661.03
830.13	35680.04
830.31	35527.59
830.49	35779.24
830.68	35658.41
830.86	35617.04
831.04	35216.95
831.22	35495.80
831.40	35257.09
831.59	35615.81
831.77	35197.62
831.95	35552.33
832.13	35118.16
832.31	35434.36
832.50	35167.23
832.68	35077.69
832.86	35106.28
833.04	35557.16
833.22	34881.82
833.40	35585.01
833.59	35084.57
833.77	35493.35
833.95	34556.36
834.13	35774.33
834.31	35178.20
834.49	35196.47
834.67	35072.37
834.86	35181.48
835.04	34889.85
835.22	35054.43
835.40	34853.15
835.58	34852.74
835.76	34806.13
835.95	34983.57
836.13	34670.06
836.31	34618.54
836.49	34791.79
836.67	34911.97
836.85	34717.74
837.03	34712.58
837.21	34639.75
837.40	34539.57
837.58	34088.60
837.76	34416.28
837.94	34285.04
838.12	34759.11
838.30	34151.84
838.48	34364.10
838.66	34173.14
838.85	34286.44
839.03	34205.75
839.21	34186.25
839.39	34039.70
839.57	34243.43
839.75	33928.86
839.93	34125.55
840.11	34149.14
840.29	34095.24
840.47	34137.26
840.66	34184.78
840.84	33975.88
841.02	33873.49
841.20	33883.15
841.38	33921.82
841.56	33748.48
841.74	34188.30
841.92	33676.88
842.10	33817.29
842.28	33899.29
842.46	33710.63
842.65	33550.89
842.83	33932.79
843.01	33965.07
843.19	33504.77
843.37	33603.24
843.55	33487.57
843.73	33518.20
843.91	33650.75
844.09	33325.78
844.27	33832.36
844.45	33218.95
844.63	33366.24
844.81	33213.88
844.99	33415.31
845.17	33114.51
845.35	33525.74
845.54	33065.19
845.72	33124.42
845.90	33088.62
846.08	33086.98
846.26	32644.46
846.44	33200.52
846.62	32623.98
846.80	32816.73
846.98	32783.56
847.16	32881.94
847.34	32885.38
847.52	33075.60
847.70	32672.80
847.88	32965.74
848.06	32729.90
848.24	32962.38
848.42	32851.96
848.60	32645.11
848.78	32881.86
848.96	32778.89
849.14	32501.18
849.32	32911.27
849.50	32428.19
849.68	32780.36
849.86	32532.39
850.04	32270.74
850.22	32231.83
850.40	32176.70
850.58	32288.28
850.76	32827.87
850.94	31802.99
851.12	32263.13
851.30	31963.39
851.48	32329.81
851.66	31970.84
851.84	32054.07
852.02	31984.03
852.20	32393.38
852.38	31742.61
852.56	32125.34
852.74	32009.18
852.92	31978.79
853.10	31768.17
853.28	32036.54
853.46	31276.82
853.64	31987.96
853.82	31584.84
854.00	31761.54
854.18	31331.46
854.36	31365.71
854.54	31529.71
854.72	31334.90
854.90	31154.36
855.07	31435.42
855.25	31164.76
855.43	31392.49
855.61	31088.33
855.79	31111.51
855.97	31196.05
856.15	31231.85
856.33	30866.49
856.51	31281.58
856.69	30726.41
856.87	31152.14
857.05	30788.02
857.23	31041.64
857.41	30554.14
857.59	30643.10
857.77	30546.36
857.94	30649.00
858.12	30844.87
858.30	30685.37
858.48	30554.71
858.66	30514.24
858.84	30613.69
859.02	30442.89
859.20	30280.20
859.38	30850.52
859.56	30510.72
859.74	30541.28
859.92	30425.77
860.09	30219.99
860.27	30470.42
860.45	30258.98
860.63	30186.40
860.81	30427.33
860.99	30212.86
861.17	29925.57
861.35	29324.78
861.53	29313.72
861.70	29248.93
861.88	29985.05
862.06	29892.07
862.24	29428.41
862.42	29312.90
862.60	29890.35
862.78	29797.86
862.96	29971.86
863.14	29587.82
863.31	29722.01
863.49	29443.89
863.67	29566.69
863.85	29385.32
864.03	29708.08
864.21	29632.22
864.39	29617.23
864.56	29273.17
864.74	29539.25
864.92	29227.55
865.10	29147.84
865.28	29139.40
865.46	29531.55
865.64	28718.75
865.81	29164.39
865.99	28596.03
866.17	29106.96
866.35	28787.31
866.53	28768.31
866.71	28764.46
866.88	28991.70
867.06	28516.49
867.24	28786.25
867.42	28449.32
867.60	28765.93
867.78	28309.97
867.95	28769.62
868.13	28180.87
868.31	28459.31
868.49	28253.53
868.67	28259.76
868.84	27975.83
869.02	28194.80
869.20	27518.06
869.38	28093.13
869.56	27783.56
869.73	27809.53
869.91	27787.17
870.09	27984.02
870.27	27597.36
870.45	27911.11
870.62	27436.31
870.80	27938.80
870.98	27641.35
871.16	27741.95
871.34	27503.32
871.51	27781.19
871.69	27422.63
871.87	27602.36
872.05	27337.93
872.23	27559.68
872.40	27113.14
872.58	27462.03
872.76	27054.16
872.94	27223.32
873.11	27297.46
873.29	27014.51
873.47	27140.83
873.65	27046.13
873.83	26976.91
874.00	27089.47
874.18	26989.77
874.36	26968.72
874.54	26975.68
874.71	26850.34
874.89	26564.53
875.07	26891.71
875.25	26691.09
875.42	26781.78
875.60	26616.06
875.78	26895.97
875.96	26389.55
876.13	26714.11
876.31	26201.22
876.49	26376.44
876.66	26066.46
876.84	26709.36
877.02	26234.73
877.20	26479.58
877.37	26405.12
877.55	26526.11
877.73	26282.73
877.91	26354.00
878.08	26486.13
878.26	26494.33
878.44	26279.78
878.61	26411.26
878.79	26095.71
878.97	26353.34
879.15	26344.74
879.32	26487.77
879.50	26243.90
879.68	26612.53
879.85	26022.64
880.03	26492.77
880.21	26017.31
880.38	26472.37
880.56	25999.21
880.74	26404.30
880.92	25886.33
881.09	26286.01
881.27	26024.44
881.45	26222.11
881.62	26025.50
881.80	26096.86
881.98	25965.62
882.15	26291.25
882.33	26028.86
882.51	26287.56
882.68	25888.29
882.86	26324.43
883.04	25857.65
883.21	25973.32
883.39	26151.09
883.57	25954.56
883.74	25882.56
883.92	26083.26
884.10	26007.40
884.27	26128.48
884.45	25884.11
884.63	26224.32
884.80	25963.98
884.98	26117.42
885.16	25926.55
885.33	25951.45
885.51	26078.01
885.69	26175.33
885.86	25926.71
886.04	26266.59
886.21	25841.60
886.39	26337.37
886.57	25773.85
886.74	26339.99
886.92	26002.98
887.10	26338.84
887.27	26142.40
887.45	26231.94
887.62	26081.46
887.80	26207.45
887.98	26390.86
888.15	26339.34
888.33	26079.08
888.51	26488.43
888.68	26027.23
888.86	26310.66
889.03	26029.93
889.21	26311.07
889.39	26216.87
889.56	26344.33
889.74	26226.45
889.91	26424.86
890.09	26258.07
890.27	26321.40
890.44	26221.95
890.62	26408.80
890.79	26335.24
890.97	26497.03
891.14	26204.50
891.32	26385.46
891.50	26129.79
891.67	26316.73
891.85	26293.95
892.02	26278.55
892.20	26386.60
892.38	26394.79
892.55	26111.11
892.73	26441.82
892.90	26115.62
893.08	26401.02
893.25	26205.40
893.43	26568.22
893.60	26054.83
893.78	26452.30
893.96	26169.52
894.13	26387.75
894.31	26426.91
894.48	26221.70
894.66	26120.53
894.83	26248.08
895.01	26030.50
895.18	26332.70
895.36	26027.47
895.53	26346.71
895.71	26103.98
895.89	26249.39
896.06	25962.92
896.24	26216.05
896.41	25961.85
896.59	26189.75
896.76	25652.20
896.94	26097.27
897.11	26059.83
897.29	26023.54
897.46	25801.78
897.64	25919.42
897.81	25876.74
897.99	25619.60
898.16	26012.64
898.34	26013.87
898.51	25847.82
898.69	25854.13
898.86	25797.69
899.04	25995.44
899.21	25574.46
899.39	25924.50
899.56	25467.56
899.74	25894.60
899.91	25520.07
900.09	25535.55
900.26	25513.27
900.44	25492.38
900.61	25476.32
900.79	25833.82
900.96	25528.50
901.14	25540.87
901.31	25357.05
901.49	25380.39
901.66	25329.28
901.84	25387.93
902.01	25087.29
902.19	25224.75
902.36	24949.50
902.54	25173.71
902.71	25025.44
902.88	25202.14
903.06	24695.72
903.23	25218.85
903.41	24858.90
903.58	24803.69
903.76	24491.17
903.93	24907.56
904.11	24860.78
904.28	24733.89
904.45	24469.38
904.63	24558.67
904.80	24222.96
904.98	24570.71
905.15	24142.77
905.33	24443.57
905.50	24131.54
905.68	24265.40
905.85	23924.70
906.02	23918.96
906.20	23981.88
906.37	23743.90
906.55	23491.10
906.72	23904.87
906.90	23521.25
907.07	23492.41
907.24	23509.86
907.42	23399.44
907.59	23281.23
907.77	23226.75
907.94	23117.55
908.11	23407.87
908.29	23159.82
908.46	23279.02
908.64	22919.31
908.81	23194.07
908.98	22835.42
909.16	23063.81
909.33	22697.31
909.51	22646.03
909.68	22569.27
909.85	22683.22
910.03	22473.34
910.20	22373.08
910.37	22303.12
910.55	22372.67
910.72	22150.34
910.90	22136.25
911.07	22061.54
911.24	21959.55
911.42	22105.45
911.59	21965.20
911.76	21919.74
911.94	21784.49
912.11	21785.06
912.29	21890.90
912.46	21452.72
912.63	21711.09
912.81	21332.05
912.98	21587.56
913.15	21138.97
913.33	21448.13
913.50	21179.85
913.67	21137.33
913.85	20955.47
914.02	21086.62
914.19	20813.92
914.37	20849.06
914.54	20745.02
914.71	20630.34
914.89	20570.78
915.06	20574.47
915.23	20329.61
915.41	20353.86
915.58	20220.99
915.75	20240.48
915.93	20179.13
916.10	20088.94
916.27	19987.52
916.45	20075.42
916.62	19792.06
916.79	20045.35
916.97	19780.27
917.14	19846.37
917.31	19596.85
917.49	19651.82
917.66	19664.43
917.83	19676.39
918.00	19535.33
918.18	19504.77
918.35	19251.73
918.52	19527.87
918.70	19156.45
918.87	19255.00
919.04	19142.86
919.21	19244.19
919.39	18897.92
919.56	19087.56
919.73	18717.04
919.91	18899.31
920.08	18793.14
920.25	18689.27
920.42	18776.92
920.60	18608.99
920.77	18311.22
920.94	18589.58
921.11	18204.72
921.29	18438.44
921.46	17950.77
921.63	18384.12
921.81	18028.02
921.98	18098.06
922.15	17910.72
922.32	18021.55
922.50	17806.51
922.67	17844.36
922.84	17659.88
923.01	17550.03
923.19	17538.72
923.36	17627.03
923.53	17207.93
923.70	17511.69
923.87	17196.55
924.05	17416.99
924.22	17056.14
924.39	17256.84
924.56	16770.00
924.74	17085.55
924.91	16954.81
925.08	16867.81
925.25	16765.66
925.43	16784.17
925.60	16485.82
925.77	16764.51
925.94	16484.43
926.11	16608.13
926.29	16346.48
926.46	16562.82
926.63	16249.98
926.80	16379.90
926.97	16074.34
927.15	16274.55
927.32	16010.53
927.49	15955.81
927.66	15852.51
927.83	16055.42
928.01	15747.16
928.18	15842.76
928.35	15539.50
928.52	15781.40
928.69	15428.66
928.87	15533.27
929.04	15333.96
929.21	15447.17
929.38	15160.78
929.55	15365.66
929.72	15026.27
929.90	15185.52
930.07	15067.89
930.24	14929.61
930.41	14861.21
930.58	14933.46
930.75	14930.76
930.93	14876.44
931.10	14737.92
931.27	14732.19
931.44	14647.24
931.61	14607.26
931.78	14556.39
931.95	14648.30
932.13	14336.60
932.30	14599.23
932.47	14190.54
932.64	14404.59
932.81	14242.72
932.98	14207.17
933.15	14218.88
933.33	14120.42
933.50	14149.50
933.67	14021.54
933.84	13941.51
934.01	14035.14
934.18	13836.16
934.35	13907.43
934.52	13701.57
934.70	13873.43
934.87	13656.76
935.04	13620.30
935.21	13580.98
935.38	13638.90
935.55	13385.52
935.72	13548.46
935.89	13304.42
936.06	13411.98
936.24	13139.93
936.41	13385.52
936.58	13083.74
936.75	13199.98
936.92	13047.77
937.09	13112.98
937.26	12871.07
937.43	13071.53
937.60	12832.74
937.77	12942.83
937.94	12825.12
938.12	12929.07
938.29	12600.74
938.46	12811.68
938.63	12555.20
938.80	12763.76
938.97	12483.60
939.14	12591.40
939.31	12297.97
939.48	12520.22
939.65	12216.13
939.82	12331.64
939.99	12241.86
940.16	12359.41
940.33	12072.94
940.50	12139.79
940.67	12006.59
940.85	12159.28
941.02	11902.55
941.19	12106.77
941.36	11866.83
941.53	11973.08
941.70	11824.15
941.87	11719.62
942.04	11704.06
942.21	11846.43
942.38	11644.91
942.55	11597.89
942.72	11538.99
942.89	11603.46
943.06	11366.88
943.23	11456.75
943.40	11344.52
943.57	11419.06
943.74	11335.43
943.91	11321.58
944.08	11232.70
944.25	11335.92
944.42	11078.12
944.59	11142.92
944.76	10993.00
944.93	11155.29
945.10	10892.41
945.27	11055.67
945.44	10705.14
945.61	10993.41
945.78	10743.32
945.95	10789.35
946.12	10602.58
946.29	10851.94
946.46	10597.09
946.63	10676.47
946.80	10584.72
946.97	10653.21
947.14	10373.29
947.31	10573.99
947.48	10341.01
947.65	10387.95
947.82	10289.73
947.99	10415.81
948.16	10105.66
948.33	10420.23
948.50	10092.88
948.67	10118.93
948.84	10057.00
949.01	10117.87
949.18	9935.84
949.35	10132.61
949.52	9780.53
949.68	10058.80
949.85	9855.89
950.02	9951.65
950.19	9748.58
950.36	9881.86
950.53	9664.28
950.70	9697.46
950.87	9557.71
951.04	9764.47
951.21	9376.67
951.38	9541.98
951.55	9391.33
951.72	9497.09
951.89	9339.72
952.06	9417.46
952.23	9230.44
952.39	9324.81
952.56	9069.88
952.73	9202.18
952.90	9048.17
953.07	9297.20
953.24	8939.30
953.41	9119.11
953.58	8843.29
953.75	9081.43
953.92	8881.22
954.09	8931.03
954.25	8720.09
954.42	8908.01
954.59	8626.45
954.76	8744.09
954.93	8595.41
955.10	8809.71
955.27	8522.09
955.44	8653.41
955.61	8447.05
955.77	8712.14
955.94	8439.68
956.11	8601.80
956.28	8444.27
956.45	8509.31
956.62	8363.66
956.79	8469.83
956.96	8293.37
957.12	8426.16
957.29	8195.56
957.46	8362.18
957.63	8174.51
957.80	8233.90
957.97	8048.93
958.14	8194.74
958.30	7965.94
958.47	8121.51
958.64	7970.53
958.81	8139.86
958.98	7856.17
959.15	7990.19
959.32	7812.51
959.48	7950.87
959.65	7821.19
959.82	7976.84
959.99	7712.81
960.16	7892.22
960.33	7727.48
960.49	7787.69
960.66	7586.66
960.83	7788.43
961.00	7563.89
961.17	7699.71
961.33	7458.54
961.50	7639.09
961.67	7406.60
961.84	7659.81
962.01	7378.67
962.18	7552.58
962.34	7315.43
962.51	7417.50
962.68	7254.64
962.85	7369.74
963.02	7097.77
963.18	7273.89
963.35	7092.61
963.52	7183.46
963.69	7140.20
963.86	7205.82
964.02	6904.44
964.19	7149.05
964.36	6904.28
964.53	7056.64
964.69	6788.61
964.86	7045.67
965.03	6714.14
965.20	6911.48
965.37	6673.59
965.53	6769.68
965.70	6645.00
965.87	6804.17
966.04	6598.72
966.20	6743.55
966.37	6599.78
966.54	6616.50
966.71	6547.36
966.87	6627.80
967.04	6477.23
967.21	6540.07
967.38	6397.85
967.54	6443.40
967.71	6313.81
967.88	6476.17
968.05	6273.91
968.21	6309.55
968.38	6219.60
968.55	6312.00
968.72	6151.52
968.88	6211.90
969.05	6136.53
969.22	6200.92
969.39	6041.75
969.55	6151.93
969.72	5979.17
969.89	6090.90
970.05	5964.42
970.22	6092.38
970.39	5929.69
970.56	6036.59
970.72	5885.86
970.89	6033.73
971.06	5881.03
971.22	5951.64
971.39	5787.23
971.56	5909.29
971.73	5755.69
971.89	5951.56
972.06	5707.61
972.23	5883.16
972.39	5678.36
972.56	5841.79
972.73	5556.71
972.89	5762.08
973.06	5589.56
973.23	5673.53
973.39	5499.94
973.56	5641.58
973.73	5464.23
973.89	5612.91
974.06	5403.52
974.23	5570.07
974.39	5389.52
974.56	5459.72
974.73	5277.94
974.89	5363.79
975.06	5243.54
975.23	5408.36
975.39	5217.24
975.56	5354.54
975.73	5208.89
975.89	5286.38
976.06	5098.38
976.23	5201.84
976.39	5129.67
976.56	5184.47
976.73	5056.76
976.89	5113.70
977.06	5015.23
977.23	5048.90
977.39	4941.26
977.56	5063.64
977.72	4888.75
977.89	5000.32
978.06	4891.61
978.22	4881.70
978.39	4824.52
978.56	4949.86
978.72	4733.51
978.89	4853.36
979.05	4781.84
979.22	4856.88
979.39	4690.59
979.55	4862.86
979.72	4682.72
979.88	4807.65
980.05	4625.87
980.22	4747.93
980.38	4622.27
980.55	4715.00
980.71	4527.81
980.88	4697.06
981.05	4525.60
981.21	4603.26
981.38	4470.39
981.54	4585.40
981.71	4465.39
981.88	4552.88
982.04	4423.45
982.21	4509.55
982.37	4403.87
982.54	4510.61
982.70	4386.83
982.87	4451.79
983.04	4285.58
983.20	4499.06
983.37	4311.88
983.53	4396.01
983.70	4283.45
983.86	4336.29
984.03	4283.12
984.20	4287.96
984.36	4222.50
984.53	4315.23
984.69	4183.43
984.86	4220.86
985.02	4170.07
985.19	4236.51
985.35	4108.47
985.52	4184.98
985.68	4096.51
985.85	4143.70
986.02	4078.49
986.18	4157.54
986.35	4040.72
986.51	4125.67
986.68	4019.34
986.84	4095.12
987.01	3992.23
987.17	4072.51
987.34	3959.62
987.50	4034.83
987.67	3955.53
987.83	4038.84
988.00	3950.20
988.16	3978.47
988.33	3906.38
988.49	3967.49
988.66	3869.02
988.82	3957.99
988.99	3840.35
989.15	3888.19
989.32	3810.61
989.48	3859.03
989.65	3809.55
989.81	3851.74
989.98	3763.43
990.14	3775.96
990.31	3718.87
990.47	3794.80
990.64	3730.66
990.80	3767.53
990.97	3689.29
991.13	3753.03
991.30	3688.80
991.46	3714.28
991.63	3662.18
991.79	3739.10
991.95	3645.47
992.12	3695.27
992.28	3631.62
992.45	3673.56
992.61	3621.14
992.78	3699.94
992.94	3605.82
993.11	3663.57
993.27	3598.53
993.44	3635.06
993.60	3602.21
993.76	3611.47
993.93	3556.09
994.09	3611.06
994.26	3569.12
994.42	3588.86
994.59	3531.52
994.75	3574.69
994.91	3528.81
995.08	3559.62
995.24	3509.65
995.41	3532.83
995.57	3526.27
995.74	3505.14
995.90	3482.04
996.06	3523.24
996.23	3465.41
996.39	3515.30
996.56	3457.05
996.72	3487.45
996.88	3459.59
997.05	3497.19
997.21	3432.31
997.38	3466.31
997.54	3437.47
997.70	3453.20
997.87	3405.61
998.03	3458.12
998.20	3405.61
998.36	3437.31
998.52	3410.36
998.69	3446.90
998.85	3419.78
999.02	3437.72
999.18	3396.76
999.34	3439.85
999.51	3396.68
999.67	3431.66
999.83	3380.54
1000.00	3419.62
1000.16	3369.81
1000.33	3425.10
1000.49	3363.75
1000.65	3382.92
1000.82	3364.48
1000.98	3383.90
1001.14	3364.48
1001.31	3374.15
1001.47	3361.70
1001.63	3369.97
1001.80	3352.85
1001.96	3344.50
1002.12	3343.19
1002.29	3364.89
1002.45	3338.19
1002.61	3353.10
1002.78	3322.13
1002.94	3350.89
1003.10	3327.46
1003.27	3339.99
1003.43	3309.03
1003.59	3337.37
1003.76	3315.99
1003.92	3314.27
1004.08	3321.48
1004.25	3326.72
1004.41	3314.10
1004.57	3327.05
1004.74	3317.63
1004.90	3323.12
1005.06	3279.29
1005.23	3315.33
1005.39	3303.78
1005.55	3285.92
1005.71	3287.32
1005.88	3303.05
1006.04	3290.59
1006.20	3301.41
1006.37	3281.34
1006.53	3300.75
1006.69	3283.55
1006.85	3283.80
1007.02	3263.72
1007.18	3294.53
1007.34	3277.98
1007.51	3282.65
1007.67	3262.33
1007.83	3285.19
1007.99	3258.73
1008.16	3283.63
1008.32	3264.38
1008.48	3280.52
1008.64	3266.02
1008.81	3273.15
1008.97	3248.73
1009.13	3269.30
1009.29	3254.30
1009.46	3263.89
1009.62	3260.28
1009.78	3238.41
1009.95	3252.09
1010.11	3265.77
1010.27	3235.30
1010.43	3245.13
1010.59	3242.34
1010.76	3265.12
1010.92	3236.86
1011.08	3248.16
1011.24	3248.82
1011.41	3257.58
1011.57	3233.17
1011.73	3241.20
1011.89	3235.30
1012.06	3257.09
1012.22	3229.16
1012.38	3257.50
1012.54	3233.33
1012.70	3248.41
1012.87	3242.51
1013.03	3238.49
1013.19	3234.48
1013.35	3245.62
1013.51	3215.97
1013.68	3245.54
1013.84	3233.33
1014.00	3222.93
1014.16	3227.11
1014.32	3235.46
1014.49	3234.40
1014.65	3231.29
1014.81	3229.97
1014.97	3234.73
1015.13	3220.64
1015.30	3236.69
1015.46	3230.38
1015.62	3220.72
1015.78	3217.36
1015.94	3216.38
1016.10	3219.41
1016.27	3225.22
1016.43	3204.74
1016.59	3236.53
1016.75	3207.94
1016.91	3223.18
1017.07	3214.90
1017.24	3220.47
1017.40	3213.51
1017.56	3218.51
1017.72	3206.05
1017.88	3224.98
1018.04	3206.63
1018.21	3223.75
1018.37	3194.42
1018.53	3225.47
1018.69	3221.86
1018.85	3215.47
1019.01	3222.60
1019.17	3224.24
1019.34	3218.59
1019.50	3233.58
1019.66	3217.77
1019.82	3235.14
1019.98	3208.76
1020.14	3222.11
1020.30	3212.77
1020.46	3224.08
1020.63	3205.81
1020.79	3229.48
1020.95	3210.07
1021.11	3221.21
1021.27	3214.82
1021.43	3208.59
1021.59	3199.17
1021.75	3208.76
1021.91	3206.05
1022.07	3216.62
1022.24	3210.81
1022.40	3209.17
1022.56	3207.53
1022.72	3205.73
1022.88	3207.61
1023.04	3211.54
1023.20	3206.22
1023.36	3208.27
1023.52	3208.18
1023.68	3217.03
1023.84	3199.99
1024.01	3219.98
1024.17	3209.99
1024.33	3211.87
1024.49	3200.98
1024.65	3214.66
1024.81	3198.52
1024.97	3215.64
1025.13	3209.17
1025.29	3226.29
1025.45	3202.45
1025.61	3207.53
1025.77	3200.81
1025.93	3211.71
1026.09	3193.11
1026.25	3231.37
1026.41	3197.70
1026.57	3208.51
1026.73	3187.62
1026.90	3222.68
1027.06	3200.98
1027.22	3196.80
1027.38	3197.53
1027.54	3217.11
1027.70	3191.72
1027.86	3208.84
1028.02	3199.42
1028.18	3199.99
1028.34	3214.90
1028.50	3191.80
1028.66	3199.34
1028.82	3199.17
1028.98	3204.42
1029.14	3212.85
1029.30	3202.61
1029.46	3224.40
1029.62	3195.32
1029.78	3197.86
1029.94	3196.22
1030.10	3211.05
1030.26	3204.66
1030.42	3214.25
1030.58	3186.97
1030.74	3200.89
1030.90	3188.03
1031.06	3205.73
1031.22	3196.47
1031.38	3209.58
1031.54	3191.23
1031.70	3201.30
1031.86	3189.42
1032.02	3205.40
1032.18	3207.45
1032.34	3200.40
1032.50	3191.88
1032.66	3198.52
1032.82	3191.88
1032.98	3219.08
1033.14	3192.87
1033.30	3211.87
1033.45	3203.84
1033.61	3195.32
1033.77	3186.72
1033.93	3202.86
1034.09	3195.16
1034.25	3203.19
1034.41	3196.80
1034.57	3199.66
1034.73	3190.41
1034.89	3200.16
1035.05	3194.42
1035.21	3199.01
1035.37	3198.60
1035.53	3225.39
1035.69	3193.93
1035.85	3200.24
1036.01	3172.30
1036.16	3193.93
1036.32	3175.50
1036.48	3212.85
1036.64	3212.44
1036.80	3203.35
1036.96	3192.87
1037.12	3184.51
1037.28	3203.92
1037.44	3197.45
1037.60	3188.61
1037.76	3203.43
1037.91	3203.68
1038.07	3205.89
1038.23	3182.71
1038.39	3218.34
1038.55	3202.86
1038.71	3205.40
1038.87	3192.95
1039.03	3194.50
1039.19	3189.92
1039.35	3198.60
1039.50	3201.55
1039.66	3199.91
1039.82	3192.70
1039.98	3204.09
1040.14	3185.33
1040.30	3222.19
1040.46	3182.22
1040.62	3199.83
1040.77	3190.16
1040.93	3222.52
1041.09	3193.68
1041.25	3201.38
1041.41	3190.24
1041.57	3206.05
1041.73	3206.05
1041.88	3206.05

