SpectraSuite Data File
++++++++++++++++++++++++++++++++++++
Date: Tue Sep 20 12:16:04 EDT 2022
User: Laboratoire
Dark Spectrum Present: No
Reference Spectrum Present: No
Number of Sampled Component Spectra: 1
Spectrometers: FLMT00174
Integration Time (usec): 15000 (FLMT00174)
Spectra Averaged: 25 (FLMT00174)
Boxcar Smoothing: 0 (FLMT00174)
Correct for Electrical Dark: No (FLMT00174)
Strobe/Lamp Enabled: No (FLMT00174)
Correct for Detector Non-linearity: No (FLMT00174)
Correct for Stray Light: No (FLMT00174)
Number of Pixels in Processed Spectrum: 3648
>>>>>Begin Processed Spectral Data<<<<<
345.74	3164.69
345.96	3164.69
346.18	3164.69
346.39	3178.12
346.61	3217.20
346.83	3236.53
347.05	3217.36
347.27	3224.57
347.49	3216.29
347.71	3232.84
347.93	3242.34
348.15	3237.02
348.36	3234.32
348.58	3231.61
348.80	3223.58
349.02	3238.99
349.24	3233.01
349.46	3298.70
349.68	3297.39
349.90	3302.47
350.11	3280.27
350.33	3303.05
350.55	3286.17
350.77	3314.51
350.99	3287.89
351.21	3303.21
351.43	3286.99
351.65	3311.24
351.86	3297.15
352.08	3305.42
352.30	3253.08
352.52	3320.25
352.74	3268.97
352.96	3276.83
353.18	3310.66
353.39	3297.48
353.61	3300.67
353.83	3299.11
354.05	3318.94
354.27	3304.85
354.49	3313.70
354.70	3312.47
354.92	3297.64
355.14	3280.27
355.36	3278.80
355.58	3296.57
355.80	3296.82
356.02	3309.19
356.23	3311.16
356.45	3294.53
356.67	3321.64
356.89	3304.68
357.11	3305.75
357.33	3309.03
357.54	3306.49
357.76	3298.70
357.98	3286.83
358.20	3304.11
358.42	3305.01
358.63	3300.26
358.85	3309.19
359.07	3305.67
359.29	3292.81
359.51	3291.41
359.73	3288.71
359.94	3289.04
360.16	3274.05
360.38	3302.88
360.60	3274.95
360.82	3319.10
361.03	3280.68
361.25	3309.35
361.47	3312.14
361.69	3309.76
361.91	3293.71
362.12	3312.14
362.34	3297.39
362.56	3298.54
362.78	3288.14
363.00	3309.60
363.21	3303.37
363.43	3318.53
363.65	3288.22
363.87	3296.74
364.09	3310.42
364.30	3290.43
364.52	3305.67
364.74	3312.63
364.96	3294.44
365.17	3301.57
365.39	3293.13
365.61	3297.56
365.83	3295.67
366.05	3295.59
366.26	3284.37
366.48	3317.96
366.70	3326.97
366.92	3307.39
367.13	3297.31
367.35	3295.84
367.57	3298.29
367.79	3291.74
368.01	3314.19
368.22	3318.45
368.44	3293.05
368.66	3300.42
368.88	3304.52
369.09	3314.84
369.31	3329.26
369.53	3316.15
369.75	3313.86
369.96	3318.04
370.18	3288.55
370.40	3323.12
370.62	3312.30
370.83	3303.95
371.05	3318.77
371.27	3323.77
371.49	3307.31
371.70	3314.84
371.92	3310.01
372.14	3311.81
372.36	3302.72
372.57	3333.11
372.79	3331.96
373.01	3305.26
373.22	3310.01
373.44	3320.33
373.66	3301.00
373.88	3323.28
374.09	3314.27
374.31	3319.02
374.53	3313.94
374.75	3327.13
374.96	3315.83
375.18	3338.11
375.40	3301.00
375.61	3324.59
375.83	3296.16
376.05	3335.73
376.27	3320.90
376.48	3311.32
376.70	3316.07
376.92	3334.34
377.13	3324.43
377.35	3299.03
377.57	3307.06
377.79	3315.01
378.00	3319.02
378.22	3330.65
378.44	3301.65
378.65	3329.83
378.87	3322.30
379.09	3347.53
379.30	3306.24
379.52	3331.06
379.74	3335.32
379.96	3309.93
380.17	3316.81
380.39	3323.69
380.61	3321.15
380.82	3335.24
381.04	3311.07
381.26	3346.63
381.47	3335.57
381.69	3356.21
381.91	3326.56
382.12	3337.21
382.34	3345.48
382.56	3339.25
382.77	3321.15
382.99	3345.07
383.21	3351.71
383.42	3360.31
383.64	3348.84
383.86	3339.01
384.07	3355.06
384.29	3340.89
384.51	3331.88
384.72	3346.30
384.94	3343.10
385.16	3348.35
385.37	3353.18
385.59	3346.79
385.81	3365.06
386.02	3344.33
386.24	3361.13
386.46	3361.04
386.67	3388.73
386.89	3386.52
387.11	3387.75
387.32	3368.74
387.54	3392.42
387.76	3390.70
387.97	3385.37
388.19	3400.12
388.40	3398.48
388.62	3376.61
388.84	3398.48
389.05	3395.94
389.27	3398.07
389.49	3412.82
389.70	3383.82
389.92	3404.63
390.14	3404.05
390.35	3420.68
390.57	3399.79
390.78	3418.63
391.00	3400.37
391.22	3417.57
391.43	3418.63
391.65	3439.60
391.86	3427.32
392.08	3437.47
392.30	3436.00
392.51	3442.88
392.73	3433.79
392.95	3416.99
393.16	3432.64
393.38	3449.52
393.59	3425.35
393.81	3460.66
394.03	3436.00
394.24	3460.82
394.46	3428.79
394.67	3443.37
394.89	3430.18
395.11	3435.18
395.32	3435.75
395.54	3463.69
395.75	3449.60
395.97	3446.40
396.19	3440.42
396.40	3454.27
396.62	3451.81
396.83	3453.69
397.05	3444.52
397.26	3447.47
397.48	3462.30
397.70	3464.34
397.91	3459.18
398.13	3444.03
398.34	3449.27
398.56	3475.16
398.78	3467.54
398.99	3482.94
399.21	3465.25
399.42	3479.58
399.64	3448.94
399.85	3473.68
400.07	3470.00
400.29	3494.24
400.50	3484.33
400.72	3507.43
400.93	3507.92
401.15	3473.60
401.36	3514.64
401.58	3523.82
401.79	3504.57
402.01	3516.69
402.23	3513.58
402.44	3544.46
402.66	3529.63
402.87	3549.29
403.09	3541.68
403.30	3541.76
403.52	3522.75
403.73	3549.79
403.95	3541.92
404.16	3564.04
404.38	3564.04
404.60	3573.54
404.81	3589.60
405.03	3594.02
405.24	3593.78
405.46	3603.20
405.67	3603.36
405.89	3632.20
406.10	3620.97
406.32	3630.48
406.53	3659.47
406.75	3673.97
406.96	3655.95
407.18	3672.83
407.39	3678.64
407.61	3693.88
407.82	3688.80
408.04	3729.76
408.25	3712.23
408.47	3721.49
408.68	3739.75
408.90	3733.53
409.12	3748.27
409.33	3792.02
409.55	3770.72
409.76	3791.20
409.98	3798.82
410.19	3809.06
410.41	3831.34
410.62	3837.65
410.84	3810.45
411.05	3830.60
411.27	3841.91
411.48	3858.46
411.70	3868.12
411.91	3897.28
412.12	3880.08
412.34	3877.62
412.55	3877.62
412.77	3890.65
412.98	3899.82
413.20	3891.55
413.41	3884.26
413.63	3886.39
413.84	3904.00
414.06	3919.32
414.27	3914.90
414.49	3921.29
414.70	3925.46
414.92	3909.65
415.13	3916.70
415.35	3932.59
415.56	3927.59
415.78	3923.33
415.99	3923.58
416.21	3912.44
416.42	3951.60
416.63	3935.05
416.85	3940.29
417.06	3940.13
417.28	3902.77
417.49	3938.24
417.71	3931.53
417.92	3901.30
418.14	3911.46
418.35	3939.64
418.57	3926.86
418.78	3919.65
418.99	3918.17
419.21	3944.96
419.42	3950.37
419.64	3926.69
419.85	3943.57
420.07	3953.15
420.28	3947.25
420.50	3943.16
420.71	3949.79
420.92	3935.79
421.14	3975.60
421.35	3944.39
421.57	3960.61
421.78	3978.30
422.00	3962.57
422.21	3973.47
422.42	3978.38
422.64	3967.65
422.85	3998.21
423.07	4000.50
423.28	3990.26
423.50	4006.81
423.71	4044.82
423.92	4034.09
424.14	4037.20
424.35	4017.95
424.57	4043.26
424.78	4070.87
424.99	4062.60
425.21	4102.41
425.42	4087.34
425.64	4089.88
425.85	4120.51
426.06	4121.00
426.28	4122.40
426.49	4142.06
426.71	4149.35
426.92	4157.46
427.13	4204.64
427.35	4233.40
427.56	4215.70
427.78	4215.87
427.99	4241.43
428.20	4294.92
428.42	4310.81
428.63	4311.47
428.84	4286.23
429.06	4314.33
429.27	4353.16
429.49	4366.02
429.70	4393.38
429.91	4413.95
430.13	4435.33
430.34	4424.68
430.56	4472.35
430.77	4516.75
430.98	4497.75
431.20	4564.43
431.41	4594.99
431.62	4592.37
431.84	4581.39
432.05	4658.56
432.26	4655.20
432.48	4658.15
432.69	4740.47
432.91	4739.57
433.12	4750.55
433.33	4768.41
433.55	4864.66
433.76	4872.61
433.97	4864.58
434.19	4890.71
434.40	4963.54
434.61	4967.06
434.83	4998.03
435.04	5013.43
435.25	5050.05
435.47	5074.38
435.68	5026.53
435.89	5140.24
436.11	5139.66
436.32	5150.97
436.53	5159.16
436.75	5186.44
436.96	5193.89
437.17	5204.87
437.39	5220.85
437.60	5287.86
437.81	5277.53
438.03	5299.90
438.24	5302.03
438.45	5393.37
438.67	5347.49
438.88	5401.07
439.09	5434.98
439.31	5435.55
439.52	5460.70
439.73	5425.23
439.94	5397.22
440.16	5458.41
440.37	5421.55
440.58	5511.08
440.80	5470.12
441.01	5474.22
441.22	5560.24
441.44	5529.60
441.65	5511.00
441.86	5487.90
442.08	5537.38
442.29	5516.33
442.50	5526.98
442.71	5503.06
442.93	5512.89
443.14	5505.43
443.35	5536.64
443.57	5482.58
443.78	5504.78
443.99	5535.00
444.20	5491.34
444.42	5516.16
444.63	5512.48
444.84	5529.19
445.06	5540.90
445.27	5492.32
445.48	5487.82
445.69	5496.34
445.91	5475.12
446.12	5456.12
446.33	5480.45
446.54	5543.03
446.76	5456.03
446.97	5499.62
447.18	5469.96
447.39	5497.65
447.61	5496.42
447.82	5505.35
448.03	5490.52
448.25	5498.39
448.46	5539.02
448.67	5562.28
448.88	5506.99
449.10	5570.72
449.31	5577.60
449.52	5547.37
449.73	5550.16
449.95	5599.64
450.16	5554.99
450.37	5631.59
450.58	5678.28
450.79	5588.91
451.01	5609.14
451.22	5612.83
451.43	5631.50
451.64	5667.14
451.86	5646.99
452.07	5643.55
452.28	5690.16
452.49	5754.63
452.71	5700.15
452.92	5718.75
453.13	5738.00
453.34	5762.98
453.55	5821.39
453.77	5835.32
453.98	5842.20
454.19	5796.16
454.40	5843.84
454.62	5890.20
454.83	5869.07
455.04	5953.53
455.25	5891.60
455.46	6069.69
455.68	5974.66
455.89	5985.56
456.10	6038.56
456.31	6062.81
456.52	6105.81
456.74	6105.81
456.95	6198.38
457.16	6196.50
457.37	6253.76
457.58	6270.63
457.80	6263.26
458.01	6269.32
458.22	6498.53
458.43	6375.24
458.64	6473.47
458.86	6416.86
459.07	6511.89
459.28	6507.13
459.49	6613.46
459.70	6730.20
459.91	6722.01
460.13	6699.89
460.34	6804.50
460.55	6780.66
460.76	6914.11
460.97	6954.74
461.19	6960.31
461.40	7169.12
461.61	7068.36
461.82	7168.96
462.03	7225.07
462.24	7253.41
462.46	7305.60
462.67	7375.96
462.88	7419.22
463.09	7454.03
463.30	7613.69
463.51	7568.88
463.72	7746.40
463.94	7805.14
464.15	7802.76
464.36	7814.80
464.57	8056.63
464.78	8067.77
464.99	8128.06
465.20	8145.84
465.42	8332.20
465.63	8360.30
465.84	8372.34
466.05	8517.67
466.26	8578.12
466.47	8723.28
466.68	8717.71
466.90	8875.49
467.11	8872.78
467.32	9032.36
467.53	9142.46
467.74	9041.86
467.95	9166.71
468.16	9294.58
468.37	9422.87
468.59	9447.28
468.80	9647.82
469.01	9508.88
469.22	9755.87
469.43	9932.89
469.64	9896.11
469.85	10054.46
470.06	10102.38
470.28	10235.67
470.49	10068.88
470.70	10302.27
470.91	10479.95
471.12	10406.47
471.33	10654.02
471.54	10564.08
471.75	10653.62
471.96	10931.32
472.17	10824.83
472.39	11127.84
472.60	10944.02
472.81	11186.25
473.02	11123.34
473.23	11322.89
473.44	11391.79
473.65	11345.58
473.86	11373.68
474.07	11456.17
474.28	11521.79
474.49	11752.15
474.71	11737.89
474.92	11849.30
475.13	11711.76
475.34	11746.17
475.55	11862.16
475.76	11906.32
475.97	12120.21
476.18	12020.35
476.39	12158.30
476.60	12220.23
476.81	12242.35
477.02	12361.13
477.23	12344.58
477.44	12305.02
477.65	12404.55
477.87	12528.41
478.08	12492.04
478.29	12501.70
478.50	12689.38
478.71	12559.29
478.92	12672.42
479.13	12666.77
479.34	12693.39
479.55	12742.46
479.76	12687.82
479.97	12736.15
480.18	13023.03
480.39	12746.80
480.60	12986.25
480.81	12988.63
481.02	13020.00
481.23	12954.22
481.44	13136.00
481.65	13173.19
481.86	13237.25
482.07	13025.16
482.28	13479.89
482.49	13251.01
482.71	13280.09
482.92	13377.66
483.13	13477.68
483.34	13338.75
483.55	13399.61
483.76	13402.24
483.97	13547.80
484.18	13509.14
484.39	13566.32
484.60	13507.75
484.81	13755.22
485.02	13580.98
485.23	13799.95
485.44	13807.90
485.65	13867.29
485.86	13774.88
486.07	13957.07
486.28	13948.63
486.49	14031.29
486.70	14073.56
486.91	14174.07
487.12	14104.93
487.33	14037.43
487.54	14329.06
487.75	14333.90
487.96	14342.50
488.17	14268.12
488.38	14422.04
488.59	14492.41
488.80	14570.81
489.01	14554.91
489.22	14741.36
489.43	14731.78
489.64	14686.97
489.85	14950.91
490.06	14711.38
490.26	14914.37
490.47	14919.70
490.68	15142.93
490.89	15279.57
491.10	15059.78
491.31	15299.31
491.52	15479.53
491.73	15377.05
491.94	15368.20
492.15	15599.79
492.36	15708.17
492.57	15720.70
492.78	15702.19
492.99	15895.02
493.20	16015.77
493.41	16086.14
493.62	16132.59
493.83	16155.28
494.04	16268.82
494.25	16411.60
494.46	16456.99
494.67	16479.35
494.88	16636.88
495.08	16756.56
495.29	16838.40
495.50	17044.67
495.71	17061.71
495.92	17202.86
496.13	17318.03
496.34	17377.18
496.55	17443.86
496.76	17749.66
496.97	17513.08
497.18	17903.59
497.39	17879.09
497.60	18240.77
497.81	18084.06
498.02	18370.53
498.22	18269.36
498.43	18697.55
498.64	18775.78
498.85	18814.12
499.06	18918.23
499.27	19305.46
499.48	18902.75
499.69	19350.60
499.90	19424.16
500.11	19646.41
500.32	19999.73
500.52	19903.39
500.73	20306.27
500.94	20399.82
501.15	20399.57
501.36	20538.91
501.57	20599.04
501.78	20847.50
501.99	21167.97
502.20	21205.08
502.41	21378.75
502.61	21464.92
502.82	21800.46
503.03	21754.43
503.24	22168.11
503.45	22057.44
503.66	22511.27
503.87	22501.28
504.08	22949.37
504.28	22895.64
504.49	23162.77
504.70	23306.21
504.91	23551.15
505.12	23490.69
505.33	23962.46
505.54	24022.84
505.75	24236.07
505.95	24469.79
506.16	24548.43
506.37	24642.31
506.58	25194.19
506.79	24879.22
507.00	25484.19
507.21	25428.15
507.41	25613.37
507.62	25881.25
507.83	26317.05
508.04	26111.52
508.25	26573.71
508.46	26491.29
508.67	26993.70
508.87	26812.01
509.08	27329.82
509.29	27263.38
509.50	27562.87
509.71	27734.00
509.92	27886.70
510.12	27768.49
510.33	28024.98
510.54	28059.88
510.75	28334.71
510.96	28612.34
511.17	28954.10
511.37	28958.93
511.58	29234.59
511.79	29132.27
512.00	29195.84
512.21	29635.66
512.42	29694.81
512.62	29807.20
512.83	30014.95
513.04	29950.89
513.25	30279.71
513.46	29751.50
513.66	30590.43
513.87	30463.13
514.08	30752.30
514.29	30673.66
514.50	30719.45
514.71	30966.93
514.91	30839.62
515.12	30845.36
515.33	31193.51
515.54	30988.72
515.75	31389.95
515.95	31188.43
516.16	31216.29
516.37	31615.15
516.58	31655.53
516.78	31402.73
516.99	31640.05
517.20	31657.75
517.41	31619.33
517.62	31749.09
517.82	31596.55
518.03	31932.09
518.24	32165.64
518.45	31518.16
518.66	31861.23
518.86	31530.20
519.07	31829.45
519.28	31296.40
519.49	31832.97
519.69	31892.36
519.90	31863.28
520.11	31939.14
520.32	31710.26
520.52	31910.30
520.73	31443.69
520.94	31837.64
521.15	31595.90
521.36	31190.89
521.56	31757.11
521.77	31170.49
521.98	31509.23
522.19	31061.71
522.39	31266.99
522.60	31062.28
522.81	31170.33
523.02	30944.23
523.22	31189.66
523.43	31163.29
523.64	30880.75
523.84	30796.78
524.05	31063.43
524.26	30820.78
524.47	30541.11
524.67	30588.46
524.88	30675.70
525.09	30767.04
525.30	30353.68
525.50	30308.05
525.71	30279.30
525.92	30190.50
526.13	30272.83
526.33	30055.25
526.54	29812.53
526.75	29950.07
526.95	30055.17
527.16	29483.54
527.37	29769.44
527.58	29831.86
527.78	29690.55
527.99	29769.44
528.20	29732.16
528.40	29431.60
528.61	29201.49
528.82	29410.14
529.03	29207.88
529.23	29101.64
529.44	29218.21
529.65	29100.33
529.85	29029.22
530.06	28922.23
530.27	28879.64
530.47	28546.23
530.68	29052.65
530.89	28506.99
531.09	28907.49
531.30	28643.87
531.51	28381.16
531.72	28604.88
531.92	28492.08
532.13	28653.87
532.34	28501.09
532.54	28464.64
532.75	28546.14
532.96	28410.00
533.16	28508.95
533.37	28570.23
533.58	28257.46
533.78	28406.06
533.99	28376.41
534.20	28044.31
534.40	28194.47
534.61	28246.16
534.82	28274.42
535.02	28205.12
535.23	28218.22
535.44	28292.85
535.64	28101.90
535.85	28164.98
536.06	28173.00
536.26	28076.50
536.47	27966.16
536.68	28288.26
536.88	27865.07
537.09	28236.16
537.29	27910.29
537.50	28373.71
537.71	28020.23
537.91	28093.87
538.12	28175.79
538.33	28048.16
538.53	28151.71
538.74	28196.93
538.95	28208.97
539.15	28076.50
539.36	28167.84
539.56	28328.65
539.77	28126.07
539.98	28111.81
540.18	28270.32
540.39	28159.57
540.60	28321.69
540.80	28473.48
541.01	28412.45
541.21	28395.58
541.42	28547.78
541.63	28462.51
541.83	28672.22
542.04	28695.89
542.25	28602.75
542.45	28775.85
542.66	28761.51
542.86	28935.26
543.07	28347.33
543.28	29065.59
543.48	28965.41
543.69	29213.21
543.89	29088.28
544.10	29631.40
544.31	29502.96
544.51	29412.93
544.72	29587.25
544.92	29502.14
545.13	29880.19
545.33	29778.94
545.54	29574.55
545.75	29737.00
545.95	29666.96
546.16	29721.52
546.36	30209.91
546.57	29768.95
546.78	29459.13
546.98	29837.51
547.19	29573.24
547.39	30248.42
547.60	30464.52
547.80	30972.66
548.01	31049.99
548.22	30786.54
548.42	30961.11
548.63	31149.93
548.83	31080.22
549.04	31303.04
549.24	31111.84
549.45	31549.53
549.65	31729.75
549.86	31444.18
550.07	31662.42
550.27	32053.00
550.48	32137.46
550.68	32219.14
550.89	32376.83
551.09	32527.72
551.30	32505.93
551.50	32757.83
551.71	32590.80
551.91	32727.93
552.12	32968.53
552.33	33240.91
552.53	32947.80
552.74	33642.97
552.94	33754.87
553.15	33773.95
553.35	33978.83
553.56	33797.22
553.76	34361.56
553.97	34169.05
554.17	34419.56
554.38	35164.85
554.58	34715.69
554.79	35117.91
554.99	34745.76
555.20	34967.18
555.40	35414.05
555.61	35191.31
555.81	35224.16
556.02	36027.46
556.22	36025.90
556.43	36019.84
556.63	36247.41
556.84	36419.11
557.04	36812.48
557.25	36460.97
557.45	36930.28
557.66	36915.95
557.86	36905.22
558.07	37421.88
558.27	37307.68
558.48	37341.68
558.68	37584.24
558.89	37781.09
559.09	37826.88
559.30	37834.91
559.50	38202.15
559.71	37950.34
559.91	38711.28
560.12	38694.40
560.32	38764.69
560.53	39054.11
560.73	38985.95
560.94	39396.28
561.14	39123.82
561.35	39594.61
561.55	39561.19
561.76	39857.81
561.96	39514.33
562.17	40023.78
562.37	40332.45
562.57	40175.82
562.78	40284.53
562.98	40668.56
563.19	40619.25
563.39	40965.52
563.60	41087.09
563.80	40705.92
564.01	41250.02
564.21	41112.97
564.42	41019.01
564.62	41320.23
564.82	41786.02
565.03	41589.25
565.23	41780.77
565.44	42001.38
565.64	41975.41
565.85	42252.54
566.05	42229.03
566.25	42271.55
566.46	42168.82
566.66	42501.82
566.87	42490.76
567.07	42448.90
567.28	42622.57
567.48	42853.09
567.68	42441.69
567.89	43204.03
568.09	42861.45
568.30	42910.35
568.50	43094.42
568.71	42949.84
568.91	43249.82
569.11	42838.18
569.32	42993.91
569.52	43105.07
569.73	42678.85
569.93	43254.49
570.13	43000.30
570.34	42843.59
570.54	43176.34
570.75	42869.47
570.95	42785.67
571.15	42804.51
571.36	43233.93
571.56	42911.91
571.77	42881.84
571.97	42538.69
572.17	43094.51
572.38	43004.56
572.58	43259.65
572.79	42950.08
572.99	42887.41
573.19	42826.71
573.40	42534.84
573.60	42568.42
573.81	42389.68
574.01	42546.71
574.21	42332.09
574.42	42304.07
574.62	42171.04
574.82	42581.45
575.03	42157.68
575.23	42596.19
575.43	42153.34
575.64	41972.63
575.84	42454.15
576.05	41931.01
576.25	41994.34
576.45	41812.72
576.66	42097.64
576.86	41511.18
577.06	41710.98
577.27	41405.59
577.47	41454.33
577.67	41256.33
577.88	40786.77
578.08	41169.74
578.28	41339.40
578.49	41046.62
578.69	41003.86
578.89	40797.75
579.10	40773.58
579.30	41182.36
579.50	40668.65
579.71	40264.38
579.91	40502.60
580.11	40163.53
580.32	39899.67
580.52	39845.28
580.72	40242.83
580.93	39405.70
581.13	39431.43
581.33	39682.75
581.54	39267.10
581.74	39215.16
581.94	39200.09
582.15	39280.86
582.35	38728.73
582.55	38816.05
582.76	38333.88
582.96	38717.59
583.16	38233.86
583.37	38422.84
583.57	37983.68
583.77	38310.37
583.97	37367.57
584.18	38239.84
584.38	37843.02
584.58	37512.07
584.79	37562.53
584.99	37232.07
585.19	37056.11
585.40	36863.27
585.60	37173.58
585.80	36771.77
586.00	37004.99
586.21	36959.77
586.41	36762.68
586.61	36736.63
586.82	36439.10
587.02	36171.22
587.22	36257.07
587.42	35844.70
587.63	36160.00
587.83	35641.54
588.03	35814.63
588.23	35409.38
588.44	35441.49
588.64	35061.47
588.84	35184.84
589.05	35172.63
589.25	35075.48
589.45	34942.61
589.65	34884.44
589.86	34888.54
590.06	34857.74
590.26	34563.57
590.46	34724.87
590.67	34109.17
590.87	34495.41
591.07	34435.69
591.27	33966.30
591.48	34148.32
591.68	33785.91
591.88	34348.37
592.08	33711.94
592.29	34021.68
592.49	33785.83
592.69	33857.27
592.89	33494.61
593.10	33588.98
593.30	33439.64
593.50	33804.92
593.70	32989.91
593.90	33553.51
594.11	33302.76
594.31	33344.70
594.51	33290.96
594.71	33173.90
594.92	33070.60
595.12	32792.73
595.32	32799.94
595.52	32881.37
595.72	32319.08
595.93	32888.66
596.13	32628.40
596.33	32345.62
596.53	32533.62
596.73	32462.11
596.94	32261.32
597.14	32527.48
597.34	32264.85
597.54	32418.12
597.74	32076.60
597.95	32178.83
598.15	32191.69
598.35	32166.71
598.55	32087.25
598.75	31982.47
598.96	32166.63
599.16	31843.70
599.36	31821.67
599.56	31775.30
599.76	31667.41
599.97	32001.23
600.17	31834.77
600.37	31942.00
600.57	31551.66
600.77	32135.58
600.97	31846.73
601.18	32145.74
601.38	31723.94
601.58	31752.77
601.78	31495.96
601.98	31419.28
602.18	31580.17
602.39	31667.66
602.59	31481.21
602.79	31388.97
602.99	31466.30
603.19	31526.76
603.39	31497.19
603.60	31466.88
603.80	31579.27
604.00	31428.54
604.20	31437.79
604.40	31648.82
604.60	31385.37
604.80	31337.20
605.01	31419.94
605.21	31349.98
605.41	31202.93
605.61	31211.86
605.81	31433.29
606.01	31700.34
606.21	31362.10
606.42	31567.80
606.62	31400.19
606.82	31721.07
607.02	31367.84
607.22	31506.61
607.42	31745.15
607.62	31329.66
607.82	31464.58
608.03	31517.99
608.23	31471.63
608.43	31509.39
608.63	31865.66
608.83	31722.63
609.03	31625.96
609.23	31677.16
609.43	31739.26
609.63	31746.96
609.84	31585.17
610.04	31899.82
610.24	31835.84
610.44	31861.48
610.64	31643.90
610.84	31936.02
611.04	32215.53
611.24	32014.99
611.44	31618.10
611.64	32124.85
611.85	32066.44
612.05	31998.61
612.25	32152.04
612.45	31985.42
612.65	32200.54
612.85	32183.99
613.05	31966.33
613.25	32388.38
613.45	32296.22
613.65	32395.83
613.85	32263.95
614.05	32554.10
614.25	32644.21
614.46	32533.70
614.66	32411.24
614.86	32573.27
615.06	32596.95
615.26	32914.87
615.46	32449.82
615.66	32945.26
615.86	33006.46
616.06	32768.89
616.26	32962.30
616.46	33473.89
616.66	33047.83
616.86	33445.87
617.06	33197.66
617.26	33515.09
617.46	33300.87
617.66	33161.28
617.86	33107.79
618.07	33306.77
618.27	33257.29
618.47	33310.29
618.67	33529.84
618.87	33749.30
619.07	33571.61
619.27	33673.03
619.47	33663.69
619.67	34094.91
619.87	33883.97
620.07	34293.32
620.27	34244.50
620.47	34084.02
620.67	34483.21
620.87	34439.95
621.07	34548.66
621.27	34518.19
621.47	34346.57
621.67	34638.85
621.87	34466.66
622.07	34839.55
622.27	34877.07
622.47	34857.74
622.67	34972.92
622.87	34884.61
623.07	35347.37
623.27	35670.21
623.47	35149.04
623.67	35578.62
623.87	35870.50
624.07	35729.35
624.27	35406.35
624.47	35560.77
624.67	35541.43
624.87	35650.88
625.07	35498.02
625.27	36011.97
625.47	35676.76
625.67	35801.85
625.87	36003.62
626.07	35995.34
626.27	36280.09
626.47	36291.64
626.67	36287.55
626.87	36217.26
627.07	36648.65
627.27	36634.23
627.47	36886.29
627.67	36813.79
627.87	36827.56
628.07	37136.47
628.27	36918.40
628.47	36738.10
628.67	37119.43
628.86	37214.13
629.06	36944.86
629.26	37020.80
629.46	37396.56
629.66	37354.95
629.86	36994.67
630.06	37517.07
630.26	37452.76
630.46	37831.31
630.66	37487.49
630.86	37732.43
631.06	37796.25
631.26	37681.56
631.46	38090.74
631.66	38137.44
631.86	37791.99
632.06	38147.27
632.26	37894.79
632.45	37853.84
632.65	37969.91
632.85	38105.00
633.05	38077.31
633.25	38225.75
633.45	38066.00
633.65	38248.36
633.85	38856.93
634.05	38206.91
634.25	38647.55
634.45	38714.56
634.65	38857.34
634.84	38622.64
635.04	38885.11
635.24	38790.49
635.44	39099.66
635.64	39071.23
635.84	39226.30
636.04	38948.52
636.24	38988.90
636.44	39084.25
636.64	38586.35
636.84	39343.69
637.03	38694.89
637.23	38985.95
637.43	39085.89
637.63	38956.05
637.83	39142.91
638.03	39323.95
638.23	38894.12
638.43	39441.09
638.62	39431.51
638.82	38616.17
639.02	39300.68
639.22	39086.38
639.42	39323.62
639.62	39151.10
639.82	39312.73
640.02	39427.00
640.21	39512.36
640.41	39074.51
640.61	39353.85
640.81	39211.39
641.01	39148.07
641.21	38986.85
641.41	39383.34
641.61	38860.94
641.80	38984.07
642.00	39150.94
642.20	39254.15
642.40	38673.68
642.60	39106.21
642.80	39133.24
642.99	38823.84
643.19	39155.11
643.39	38697.43
643.59	38983.74
643.79	38930.74
643.99	39031.50
644.19	38862.34
644.38	38522.29
644.58	38600.61
644.78	38551.46
644.98	38480.43
645.18	38753.96
645.38	38821.30
645.57	38467.08
645.77	38243.20
645.97	38125.89
646.17	38183.31
646.37	38132.44
646.56	37905.12
646.76	37996.46
646.96	38066.33
647.16	38037.82
647.36	38088.04
647.55	37952.71
647.75	38054.21
647.95	37841.06
648.15	38080.34
648.35	37906.43
648.55	37964.43
648.74	37760.78
648.94	37658.05
649.14	37885.37
649.34	37556.88
649.54	37486.18
649.73	37502.08
649.93	37147.45
650.13	37097.48
650.33	36880.56
650.52	36997.78
650.72	37188.98
650.92	36834.85
651.12	36596.63
651.32	36644.14
651.51	36736.14
651.71	36665.36
651.91	36503.24
652.11	36386.67
652.30	36483.58
652.50	36690.59
652.70	36475.47
652.90	36145.01
653.10	36109.38
653.29	35733.61
653.49	35987.64
653.69	35517.76
653.89	35576.00
654.08	35347.69
654.28	35662.34
654.48	35336.55
654.68	35535.94
654.87	35092.27
655.07	34905.66
655.27	34950.63
655.47	34619.76
655.66	34516.87
655.86	34277.51
656.06	34632.38
656.26	34038.39
656.45	34279.56
656.65	34258.67
656.85	34127.92
657.04	33773.79
657.24	33699.33
657.44	33509.77
657.64	33641.74
657.83	32961.57
658.03	33358.79
658.23	33245.74
658.43	33056.51
658.62	33144.90
658.82	32936.33
659.02	32782.25
659.21	32795.11
659.41	32658.55
659.61	32821.98
659.81	32519.12
660.00	32249.61
660.20	32345.37
660.40	32214.22
660.59	32192.84
660.79	31835.67
660.99	32046.61
661.19	31888.76
661.38	31903.09
661.58	31412.89
661.78	31721.73
661.97	31607.37
662.17	31951.43
662.37	31407.24
662.56	31344.74
662.76	31278.95
662.96	31170.82
663.15	31052.20
663.35	30862.56
663.55	30629.75
663.74	30301.83
663.94	30521.37
664.14	30260.70
664.33	30401.19
664.53	30185.26
664.73	30354.99
664.93	29855.53
665.12	30049.93
665.32	29739.13
665.52	29673.92
665.71	29487.88
665.91	29612.48
666.10	29374.34
666.30	29507.79
666.50	29292.18
666.69	29234.59
666.89	29507.13
667.09	29505.90
667.28	29158.65
667.48	28991.95
667.68	28922.15
667.87	28801.90
668.07	28514.77
668.27	28657.39
668.46	28694.58
668.66	28491.75
668.86	28640.19
669.05	28249.27
669.25	28338.56
669.44	28008.18
669.64	28112.22
669.84	27912.75
670.03	28183.41
670.23	27849.26
670.43	27720.73
670.62	27580.16
670.82	27471.62
671.01	27690.34
671.21	27366.92
671.41	27441.88
671.60	27548.87
671.80	27646.68
672.00	27461.95
672.19	27449.09
672.39	27293.61
672.58	27198.83
672.78	27011.72
672.98	27234.63
673.17	26980.76
673.37	26533.65
673.56	26659.97
673.76	26763.92
673.96	26933.82
674.15	26615.89
674.35	26737.38
674.54	26528.24
674.74	26598.85
674.94	26488.76
675.13	26676.51
675.33	26267.66
675.52	26454.76
675.72	26287.32
675.91	26139.54
676.11	26158.38
676.31	25873.63
676.50	25886.16
676.70	25882.23
676.89	25848.48
677.09	25892.31
677.28	25707.91
677.48	25382.36
677.68	25471.00
677.87	25379.82
678.07	25360.82
678.26	25414.06
678.46	25354.84
678.65	25416.28
678.85	25540.38
679.04	25264.07
679.24	25265.95
679.44	25212.95
679.63	25160.77
679.83	24974.16
680.02	25032.98
680.22	24937.54
680.41	24969.65
680.61	24973.91
680.80	24837.03
681.00	24951.55
681.19	24977.93
681.39	24894.04
681.59	24836.29
681.78	24689.16
681.98	24856.03
682.17	24454.96
682.37	24592.75
682.56	24431.69
682.76	24613.39
682.95	24438.90
683.15	24558.09
683.34	24552.69
683.54	24663.03
683.73	24652.87
683.93	24313.24
684.12	24497.31
684.32	24501.98
684.51	24096.65
684.71	24244.76
684.90	24101.56
685.10	24115.32
685.29	24004.90
685.49	24209.20
685.68	24121.80
685.88	24190.69
686.07	24040.94
686.27	24116.72
686.46	24001.78
686.66	23779.62
686.85	23796.41
687.05	23724.65
687.24	23751.69
687.44	23853.18
687.63	23850.56
687.83	23582.11
688.02	23741.77
688.22	23825.66
688.41	23674.44
688.61	23685.66
688.80	23807.72
689.00	23592.68
689.19	23369.13
689.39	23614.06
689.58	23596.86
689.77	23554.75
689.97	23610.70
690.16	23560.82
690.36	23375.19
690.55	23446.95
690.75	23711.71
690.94	23523.46
691.14	23579.82
691.33	23308.59
691.53	23405.58
691.72	23223.88
691.91	23151.80
692.11	23190.38
692.30	23357.49
692.50	23280.16
692.69	23206.19
692.89	23257.14
693.08	23289.58
693.28	23292.29
693.47	23390.59
693.66	23407.30
693.86	23277.62
694.05	23300.15
694.25	23331.20
694.44	23296.87
694.64	23195.62
694.83	23167.36
695.02	23161.05
695.22	23371.75
695.41	23205.12
695.61	23169.00
695.80	23186.36
695.99	23194.39
696.19	23206.76
696.38	23166.54
696.58	22976.49
696.77	23292.86
696.96	23253.05
697.16	23151.96
697.35	23068.89
697.55	23144.91
697.74	22993.20
697.93	23220.12
698.13	22999.10
698.32	23144.67
698.52	23065.45
698.71	22935.69
698.90	23301.62
699.10	23214.46
699.29	23157.28
699.49	23283.93
699.68	23151.30
699.87	23035.80
700.07	23253.05
700.26	23239.45
700.45	23284.18
700.65	23246.25
700.84	23546.23
701.04	23267.30
701.23	23443.02
701.42	23318.01
701.62	23175.14
701.81	23270.33
702.00	23228.72
702.20	22953.31
702.39	23041.45
702.58	23135.08
702.78	23096.83
702.97	23127.96
703.17	23092.40
703.36	23129.51
703.55	23039.08
703.75	23027.36
703.94	23158.84
704.13	22997.13
704.33	23092.32
704.52	23177.27
704.71	23146.80
704.91	23146.55
705.10	23088.72
705.29	23188.25
705.49	23211.35
705.68	23242.15
705.87	23244.04
706.07	23102.73
706.26	23367.00
706.45	23181.37
706.65	23137.46
706.84	23467.35
707.03	23642.57
707.23	23280.33
707.42	23249.93
707.61	23419.34
707.80	23201.44
708.00	23280.00
708.19	23271.97
708.38	23521.17
708.58	23165.07
708.77	23543.53
708.96	23222.41
709.16	23214.79
709.35	23739.15
709.54	23390.42
709.74	23354.46
709.93	23247.97
710.12	23545.17
710.31	23705.16
710.51	23470.21
710.70	23546.64
710.89	23643.23
711.09	23378.22
711.28	23473.33
711.47	23571.79
711.66	23589.49
711.86	23515.68
712.05	23747.34
712.24	23799.12
712.43	23579.74
712.63	23405.58
712.82	23750.13
713.01	23611.69
713.21	23491.27
713.40	23456.21
713.59	23678.94
713.78	23366.75
713.98	23611.52
714.17	23725.80
714.36	23810.26
714.55	23653.63
714.75	23824.02
714.94	23883.58
715.13	23987.12
715.32	23613.82
715.52	23767.50
715.71	23681.40
715.90	23737.02
716.09	23685.74
716.29	23959.51
716.48	23747.34
716.67	23573.10
716.86	23718.26
717.06	23721.54
717.25	23863.59
717.44	23916.18
717.63	23984.01
717.82	23734.24
718.02	23784.95
718.21	23981.39
718.40	24014.32
718.59	23938.13
718.79	23891.44
718.98	24020.46
719.17	24165.62
719.36	24168.08
719.55	23919.95
719.75	23875.30
719.94	23853.27
720.13	24059.21
720.32	24056.92
720.51	23946.24
720.71	24043.48
720.90	23914.95
721.09	24144.00
721.28	23972.46
721.47	24141.78
721.67	23949.11
721.86	24022.67
722.05	23996.71
722.24	23830.66
722.43	24078.71
722.63	23839.26
722.82	23967.46
723.01	23983.19
723.20	23909.22
723.39	23993.92
723.58	24159.72
723.78	23909.38
723.97	24242.38
724.16	24080.26
724.35	24235.01
724.54	23965.25
724.73	24152.84
724.93	23979.09
725.12	24213.46
725.31	23839.83
725.50	24011.94
725.69	24119.09
725.88	23991.63
726.08	23772.08
726.27	24114.50
726.46	23839.34
726.65	24425.39
726.84	24034.96
727.03	24122.61
727.23	24298.74
727.42	24214.69
727.61	24219.69
727.80	24287.35
727.99	24404.91
728.18	24370.09
728.37	24131.13
728.56	24041.11
728.76	23933.63
728.95	23964.35
729.14	23903.40
729.33	23941.08
729.52	24167.92
729.71	24191.18
729.90	24175.53
730.09	24113.52
730.29	24343.14
730.48	23993.35
730.67	24248.85
730.86	24002.60
731.05	24268.02
731.24	24044.63
731.43	24108.20
731.62	23981.39
731.81	23946.24
732.01	24295.05
732.20	23864.57
732.39	23981.06
732.58	23983.27
732.77	23577.28
732.96	23887.67
733.15	23948.29
733.34	23743.25
733.53	23912.17
733.72	23980.81
733.92	23941.00
734.11	23896.03
734.30	23880.95
734.49	24031.93
734.68	23875.06
734.87	23831.97
735.06	23872.35
735.25	23913.15
735.44	23856.95
735.63	23900.86
735.82	23920.52
736.01	23700.81
736.20	23732.60
736.40	23937.97
736.59	23814.03
736.78	23857.85
736.97	23554.02
737.16	23647.81
737.35	23685.25
737.54	23739.23
737.73	23577.61
737.92	23845.81
738.11	23852.45
738.30	23796.66
738.49	23794.04
738.68	23827.54
738.87	23871.45
739.06	23690.25
739.25	23717.61
739.44	23590.39
739.63	23472.59
739.82	23250.83
740.01	23452.19
740.20	23285.57
740.39	23396.65
740.59	23334.15
740.78	23372.57
740.97	23187.68
741.16	23144.75
741.35	23248.13
741.54	23179.48
741.73	23204.55
741.92	23070.70
742.11	23101.09
742.30	23131.23
742.49	22934.63
742.68	23111.08
742.87	23017.37
743.06	22893.91
743.25	23060.54
743.44	23002.46
743.63	23082.66
743.82	22979.27
744.01	22892.69
744.20	22728.60
744.39	22911.94
744.58	22805.03
744.77	22600.97
744.96	22471.79
745.15	22590.32
745.34	22430.01
745.53	22558.87
745.72	22406.42
745.91	22414.61
746.10	22200.31
746.29	22340.96
746.48	22331.46
746.67	22280.34
746.86	22319.75
747.04	22213.91
747.23	22184.50
747.42	22281.49
747.61	22052.04
747.80	22317.78
747.99	21895.57
748.18	22147.72
748.37	22008.13
748.56	21794.97
748.75	21948.00
748.94	21755.33
749.13	21835.36
749.32	21660.55
749.51	21751.97
749.70	21739.02
749.89	21627.29
750.08	21637.85
750.27	21392.67
750.46	21415.28
750.65	21606.48
750.84	21339.10
751.02	21365.47
751.21	21301.58
751.40	21323.78
751.59	21390.21
751.78	21253.66
751.97	21299.12
752.16	21121.36
752.35	21180.09
752.54	20889.61
752.73	21074.42
752.92	20945.97
753.11	20958.09
753.30	21043.21
753.49	21060.57
753.67	20889.53
753.86	20752.48
754.05	20798.52
754.24	20695.38
754.43	20583.40
754.62	20625.67
754.81	20406.37
755.00	20423.33
755.19	20310.93
755.38	20113.67
755.56	20292.50
755.75	20383.35
755.94	20132.76
756.13	20185.03
756.32	20184.29
756.51	20043.22
756.70	20073.62
756.89	19967.61
757.08	19892.00
757.26	19880.21
757.45	19943.04
757.64	19802.30
757.83	20048.88
758.02	19808.36
758.21	19784.61
758.40	19770.76
758.59	19693.27
758.77	19528.61
758.96	19603.98
759.15	19551.55
759.34	19390.66
759.53	19398.61
759.72	19388.12
759.91	19220.10
760.09	19307.02
760.28	19258.44
760.47	19053.81
760.66	19165.63
760.85	18978.77
761.04	19047.50
761.23	18962.06
761.41	18845.82
761.60	18962.39
761.79	18862.69
761.98	18818.62
762.17	18939.62
762.36	18821.32
762.54	18829.43
762.73	18723.60
762.92	18535.18
763.11	18620.30
763.30	18669.45
763.49	18560.66
763.67	18445.24
763.86	18430.65
764.05	18497.42
764.24	18382.57
764.43	18483.74
764.61	18271.32
764.80	18276.40
764.99	18390.76
765.18	18091.51
765.37	18181.78
765.55	18150.00
765.74	18033.84
765.93	17932.75
766.12	18044.73
766.31	17941.84
766.49	17939.96
766.68	17899.25
766.87	17878.03
767.06	17845.92
767.25	17794.31
767.43	17781.86
767.62	17714.52
767.81	17731.56
768.00	17561.00
768.19	17460.00
768.37	17512.18
768.56	17460.00
768.75	17479.50
768.94	17444.11
769.12	17260.36
769.31	17265.44
769.50	17232.02
769.69	17231.53
769.88	17099.23
770.06	17396.27
770.25	17153.21
770.44	17088.17
770.63	17164.93
770.81	17095.30
771.00	17076.70
771.19	17063.51
771.38	17086.69
771.56	17071.05
771.75	16817.59
771.94	16940.47
772.13	16875.75
772.31	16732.31
772.50	16935.72
772.69	16802.93
772.88	16934.24
773.06	16679.72
773.25	16759.51
773.44	16675.46
773.62	16580.93
773.81	16578.72
774.00	16491.31
774.19	16489.34
774.37	16420.61
774.56	16526.53
774.75	16204.02
774.94	16327.96
775.12	16116.69
775.31	16178.46
775.50	16271.44
775.68	16139.55
775.87	16126.03
776.06	16052.39
776.25	16145.37
776.43	16015.36
776.62	16089.33
776.81	15890.19
776.99	16006.35
777.18	15949.17
777.37	15709.07
777.55	15818.92
777.74	15800.00
777.93	15791.56
778.12	15821.13
778.30	15738.89
778.49	15772.80
778.68	15808.19
778.86	15752.57
779.05	15810.73
779.24	15834.32
779.42	15788.86
779.61	15618.79
779.80	15531.71
779.98	15493.62
780.17	15568.49
780.36	15322.49
780.54	15403.10
780.73	15200.76
780.92	15346.58
781.10	15311.11
781.29	15229.43
781.48	15252.37
781.66	15259.50
781.85	15283.50
782.04	15214.20
782.22	15286.78
782.41	15173.65
782.60	15233.69
782.78	15133.18
782.97	15195.19
783.16	14919.94
783.34	14919.94
783.53	14996.29
783.71	14902.74
783.90	14940.34
784.09	14905.12
784.27	14966.56
784.46	14976.71
784.65	14951.73
784.83	14898.64
785.02	14904.95
785.20	15032.34
785.39	14768.31
785.58	14928.38
785.76	14802.55
785.95	14756.84
786.14	14814.02
786.32	14809.52
786.51	14675.33
786.69	14797.31
786.88	14672.39
787.07	14624.22
787.25	14602.67
787.44	14574.57
787.62	14574.82
787.81	14670.17
788.00	14718.42
788.18	14720.06
788.37	14758.56
788.55	14975.40
788.74	14766.92
788.93	14953.86
789.11	14996.70
789.30	15001.45
789.48	14923.22
789.67	14980.97
789.86	14900.45
790.04	14943.13
790.23	14726.70
790.41	14664.03
790.60	14709.41
790.78	14685.57
790.97	14542.22
791.16	14671.48
791.34	14736.04
791.53	14583.50
791.71	14742.51
791.90	14607.42
792.08	14584.98
792.27	14568.35
792.46	14511.82
792.64	14576.70
792.83	14493.39
793.01	14549.26
793.20	14551.56
793.38	14533.62
793.57	14535.01
793.75	14541.07
793.94	14549.18
794.12	14711.87
794.31	14568.27
794.50	14661.98
794.68	14698.76
794.87	14707.20
795.05	14762.99
795.24	14687.79
795.42	14643.30
795.61	14760.12
795.79	14721.37
795.98	14576.46
796.16	14681.15
796.35	14720.14
796.53	14599.97
796.72	14744.97
796.90	14734.15
797.09	14714.82
797.27	14689.26
797.46	14671.89
797.64	14648.22
797.83	14600.87
798.01	14639.54
798.20	14699.25
798.38	14560.40
798.57	14718.59
798.75	14637.90
798.94	14470.62
799.12	14761.19
799.31	14621.84
799.49	14667.39
799.68	14600.95
799.86	14700.32
800.05	14619.22
800.23	14685.90
800.42	14619.14
800.60	14772.65
800.79	14605.38
800.97	14728.25
801.16	14801.74
801.34	14655.10
801.53	14586.29
801.71	14697.12
801.90	14546.23
802.08	14664.52
802.27	14622.09
802.45	14446.70
802.64	14518.21
802.82	14502.98
803.00	14353.15
803.19	14486.68
803.37	14609.72
803.56	14429.50
803.74	14456.69
803.93	14516.17
804.11	14439.16
804.30	14432.20
804.48	14509.69
804.67	14485.94
804.85	14458.58
805.03	14545.00
805.22	14452.19
805.40	14422.04
805.59	14513.46
805.77	14512.48
805.96	14447.11
806.14	14334.39
806.32	14439.16
806.51	14479.55
806.69	14279.75
806.88	14280.40
807.06	14340.20
807.25	14368.47
807.43	14395.99
807.61	14474.88
807.80	14446.70
807.98	14530.75
808.17	14467.18
808.35	14415.49
808.53	14518.71
808.72	14439.41
808.90	14488.81
809.09	14500.52
809.27	14458.17
809.45	14360.52
809.64	14444.82
809.82	14316.94
810.01	14327.26
810.19	14292.69
810.37	14260.50
810.56	14249.44
810.74	14349.13
810.93	14268.77
811.11	14277.54
811.29	14240.02
811.48	14367.32
811.66	14270.08
811.84	14247.88
812.03	14247.88
812.21	14274.83
812.40	14274.10
812.58	14312.27
812.76	14169.40
812.95	14283.60
813.13	14097.56
813.31	14206.60
813.50	14194.72
813.68	14174.73
813.86	14264.02
814.05	14329.56
814.23	14171.37
814.42	14312.43
814.60	14273.20
814.78	14349.13
814.97	14360.44
815.15	14348.48
815.33	14405.58
815.52	14254.11
815.70	14228.55
815.88	14186.20
816.07	14050.70
816.25	14099.04
816.43	14166.37
816.62	14030.88
816.80	14058.65
816.98	14035.79
817.17	14046.69
817.35	14086.09
817.53	14094.69
817.72	14099.69
817.90	14007.70
818.08	14038.74
818.26	14122.55
818.45	13987.22
818.63	14080.85
818.81	14120.01
819.00	13979.93
819.18	14080.77
819.36	14112.39
819.55	14142.13
819.73	14030.72
819.91	14128.53
820.09	14128.44
820.28	14231.33
820.46	14061.52
820.64	14247.31
820.83	14062.09
821.01	14087.08
821.19	14068.81
821.38	14148.76
821.56	14092.07
821.74	14154.00
821.92	14133.20
822.11	14226.75
822.29	13960.84
822.47	13982.88
822.65	14014.33
822.84	14030.63
823.02	13890.23
823.20	14174.32
823.39	13939.21
823.57	14032.68
823.75	14008.19
823.93	13984.43
824.12	13973.29
824.30	13884.98
824.48	13961.08
824.66	14048.00
824.85	13792.66
825.03	14013.19
825.21	14032.27
825.39	14086.91
825.58	14097.15
825.76	14154.58
825.94	14131.31
826.12	14075.77
826.31	14035.14
826.49	14086.99
826.67	14048.16
826.85	14046.77
827.03	14076.18
827.22	14100.59
827.40	14072.82
827.58	14100.10
827.76	14168.50
827.95	14117.71
828.13	14183.99
828.31	14185.54
828.49	14196.77
828.67	14123.28
828.86	14149.91
829.04	14171.78
829.22	14141.14
829.40	14100.02
829.58	14073.40
829.77	14036.70
829.95	13974.36
830.13	13982.47
830.31	13915.21
830.49	13984.76
830.68	14007.53
830.86	13948.47
831.04	13969.28
831.22	13954.53
831.40	13980.58
831.59	14079.05
831.77	13996.39
831.95	14108.37
832.13	13952.07
832.31	14111.16
832.50	14042.10
832.68	13979.52
832.86	14031.78
833.04	14150.89
833.22	14004.34
833.40	14222.82
833.59	14075.69
833.77	14256.73
833.95	13956.50
834.13	14278.93
834.31	14055.86
834.49	14144.17
834.67	14097.89
834.86	14123.45
835.04	14129.59
835.22	14140.08
835.40	14077.90
835.58	14112.47
835.76	14158.75
835.95	14180.63
836.13	14059.22
836.31	14037.84
836.49	14137.46
836.67	14102.72
836.85	14071.43
837.03	14102.15
837.21	14096.17
837.40	14013.02
837.58	13920.13
837.76	14000.16
837.94	13997.37
838.12	14161.54
838.30	14034.81
838.48	14064.88
838.66	14040.55
838.85	14025.88
839.03	14009.42
839.21	14013.92
839.39	13964.03
839.57	14047.84
839.75	13968.79
839.93	14080.36
840.11	14156.05
840.29	14126.56
840.47	14181.86
840.66	14174.32
840.84	14078.88
841.02	14054.39
841.20	14047.75
841.38	14041.12
841.56	14046.94
841.74	14186.20
841.92	13978.70
842.10	13994.43
842.28	14040.96
842.46	13938.97
842.65	13971.00
842.83	14079.13
843.01	14145.48
843.19	13953.79
843.37	14119.60
843.55	14047.18
843.73	14169.24
843.91	14213.39
844.09	14161.05
844.27	14307.11
844.45	14160.07
844.63	14172.03
844.81	14163.26
844.99	14163.26
845.17	14056.03
845.35	14157.94
845.54	14020.64
845.72	14070.04
845.90	14012.37
846.08	14060.12
846.26	13967.23
846.44	14065.86
846.62	13936.67
846.80	13935.03
846.98	13985.91
847.16	14006.80
847.34	14067.58
847.52	14050.21
847.70	14052.67
847.88	14144.50
848.06	14063.81
848.24	14161.70
848.42	14124.51
848.60	14038.25
848.78	14125.74
848.96	14146.47
849.14	14138.03
849.32	14272.62
849.50	14131.89
849.68	14261.32
849.86	14213.80
850.04	14184.56
850.22	14234.45
850.40	14094.86
850.58	14170.22
850.76	14391.08
850.94	13980.91
851.12	14143.44
851.30	14022.20
851.48	14173.83
851.66	14088.88
851.84	14148.27
852.02	14181.12
852.20	14296.38
852.38	14228.14
852.56	14282.37
852.74	14279.18
852.92	14230.76
853.10	14142.13
853.28	14234.61
853.46	13940.28
853.64	14165.47
853.82	14051.36
854.00	14103.21
854.18	14043.66
854.36	14004.83
854.54	14092.24
854.72	13947.81
854.90	13955.43
855.07	13995.74
855.25	13987.05
855.43	14042.27
855.61	14014.00
855.79	14016.05
855.97	14034.73
856.15	14096.99
856.33	14019.49
856.51	14151.14
856.69	13947.49
856.87	13982.71
857.05	13918.49
857.23	13885.39
857.41	13818.38
857.59	13816.83
857.77	13813.06
857.94	13854.18
858.12	13899.40
858.30	13881.46
858.48	13834.11
858.66	13787.58
858.84	13903.00
859.02	13819.20
859.20	13869.75
859.38	14003.52
859.56	13967.56
859.74	14003.03
859.92	14023.67
860.09	13943.80
860.27	14004.67
860.45	13927.42
860.63	13914.15
860.81	13958.05
860.99	13892.60
861.17	13724.67
861.35	13666.67
861.53	13588.27
861.70	13550.10
861.88	13819.12
862.06	13761.69
862.24	13607.28
862.42	13594.83
862.60	13745.39
862.78	13735.73
862.96	13771.85
863.14	13638.73
863.31	13628.09
863.49	13635.62
863.67	13593.35
863.85	13577.21
864.03	13691.08
864.21	13753.83
864.39	13671.01
864.56	13527.24
864.74	13671.17
864.92	13615.80
865.10	13572.87
865.28	13600.56
865.46	13754.08
865.64	13534.86
865.81	13611.54
865.99	13485.87
866.17	13684.53
866.35	13570.17
866.53	13555.51
866.71	13535.11
866.88	13581.72
867.06	13428.29
867.24	13557.23
867.42	13498.00
867.60	13571.97
867.78	13570.25
867.95	13681.33
868.13	13510.45
868.31	13612.68
868.49	13548.71
868.67	13523.07
868.84	13453.52
869.02	13556.98
869.20	13353.08
869.38	13501.36
869.56	13398.14
869.73	13316.71
869.91	13330.97
870.09	13407.07
870.27	13270.59
870.45	13331.46
870.62	13292.96
870.80	13436.89
870.98	13356.93
871.16	13435.49
871.34	13417.64
871.51	13445.82
871.69	13308.11
871.87	13306.55
872.05	13334.32
872.23	13301.31
872.40	13205.55
872.58	13300.98
872.76	13216.36
872.94	13276.33
873.11	13287.14
873.29	13252.16
873.47	13212.76
873.65	13168.11
873.83	13129.77
874.00	13117.90
874.18	13134.77
874.36	13126.99
874.54	13171.31
874.71	13193.34
874.89	13060.72
875.07	13167.13
875.25	13058.26
875.42	13057.11
875.60	13010.25
875.78	13050.48
875.96	12875.74
876.13	12946.69
876.31	12795.79
876.49	12763.19
876.66	12653.25
876.84	12886.47
877.02	12755.65
877.20	12806.28
877.37	12804.88
877.55	12787.76
877.73	12775.39
877.91	12754.26
878.08	12856.74
878.26	12906.79
878.44	12808.98
878.61	12896.71
878.79	12796.12
878.97	12830.20
879.15	12888.85
879.32	12862.23
879.50	12803.82
879.68	12850.84
879.85	12733.94
880.03	12844.70
880.21	12689.95
880.38	12849.78
880.56	12706.58
880.74	12826.92
880.92	12615.98
881.09	12694.46
881.27	12657.76
881.45	12678.40
881.62	12608.20
881.80	12647.76
881.98	12624.66
882.15	12727.88
882.33	12683.97
882.51	12748.85
882.68	12642.11
882.86	12818.89
883.04	12620.57
883.21	12663.90
883.39	12723.46
883.57	12560.44
883.74	12571.91
883.92	12594.27
884.10	12569.94
884.27	12610.74
884.45	12501.62
884.63	12640.23
884.80	12587.96
884.98	12644.49
885.16	12586.57
885.33	12614.83
885.51	12625.24
885.69	12626.79
885.86	12570.76
886.04	12674.71
886.21	12518.17
886.39	12668.24
886.57	12481.88
886.74	12682.09
886.92	12632.04
887.10	12658.58
887.27	12633.59
887.45	12643.01
887.62	12628.84
887.80	12626.55
887.98	12721.65
888.15	12687.08
888.33	12587.88
888.51	12750.33
888.68	12604.02
888.86	12669.23
889.03	12532.50
889.21	12580.26
889.39	12587.23
889.56	12506.29
889.74	12499.00
889.91	12448.37
890.09	12441.66
890.27	12449.52
890.44	12459.51
890.62	12485.97
890.79	12456.40
890.97	12465.99
891.14	12463.77
891.32	12514.73
891.50	12491.87
891.67	12554.87
891.85	12563.71
892.02	12515.30
892.20	12689.71
892.38	12634.33
892.55	12586.65
892.73	12731.40
892.90	12628.35
893.08	12667.26
893.25	12587.39
893.43	12662.35
893.60	12496.21
893.78	12600.82
893.96	12534.31
894.13	12625.97
894.31	12615.00
894.48	12677.01
894.66	12639.74
894.83	12656.04
895.01	12682.91
895.18	12695.93
895.36	12665.29
895.53	12737.87
895.71	12603.04
895.89	12675.94
896.06	12554.54
896.24	12632.20
896.41	12614.42
896.59	12655.71
896.76	12377.19
896.94	12488.19
897.11	12456.89
897.29	12506.95
897.46	12369.24
897.64	12361.38
897.81	12379.81
897.99	12336.31
898.16	12468.12
898.34	12419.70
898.51	12315.01
898.69	12320.17
898.86	12394.63
899.04	12420.52
899.21	12455.17
899.39	12512.52
899.56	12436.58
899.74	12614.01
899.91	12373.66
900.09	12367.60
900.26	12358.67
900.44	12235.47
900.61	12227.77
900.79	12334.42
900.96	12212.86
901.14	12211.30
901.31	12156.25
901.49	12158.71
901.66	12168.54
901.84	12195.08
902.01	12067.37
902.19	12089.00
902.36	12028.46
902.54	12043.37
902.71	12036.32
902.88	12080.23
903.06	11947.69
903.23	12109.15
903.41	11987.83
903.58	11991.84
903.76	11928.11
903.93	12020.76
904.11	12056.23
904.28	11975.13
904.45	11915.00
904.63	11891.65
904.80	11798.59
904.98	11863.06
905.15	11734.94
905.33	11836.52
905.50	11723.23
905.68	11710.94
905.85	11653.02
906.02	11632.71
906.20	11696.85
906.37	11538.01
906.55	11520.64
906.72	11662.94
906.90	11505.00
907.07	11459.70
907.24	11481.57
907.42	11416.77
907.59	11412.92
907.77	11337.72
907.94	11337.23
908.11	11353.61
908.29	11353.04
908.46	11345.01
908.64	11334.52
908.81	11411.12
908.98	11322.89
909.16	11435.28
909.33	11349.76
909.51	11330.92
909.68	11245.64
909.85	11327.48
910.03	11281.85
910.20	11236.14
910.37	11235.32
910.55	11258.09
910.72	11177.40
910.90	11125.06
911.07	11123.09
911.24	10994.89
911.42	11088.60
911.59	10912.56
911.76	10935.74
911.94	10830.15
912.11	10853.99
912.29	10846.45
912.46	10739.96
912.63	10806.80
912.81	10652.39
912.98	10736.11
913.15	10556.30
913.33	10665.17
913.50	10623.31
913.67	10586.36
913.85	10546.47
914.02	10536.88
914.19	10517.96
914.37	10443.66
914.54	10459.63
914.71	10446.44
914.89	10487.24
915.06	10489.70
915.23	10473.39
915.41	10354.53
915.58	10322.91
915.75	10299.23
915.93	10285.31
916.10	10212.32
916.27	10167.18
916.45	10118.44
916.62	10041.19
916.79	10055.61
916.97	9925.44
917.14	9932.98
917.31	9875.39
917.49	9938.79
917.66	9981.06
917.83	9953.87
918.00	9893.41
918.18	9860.15
918.35	9891.77
918.52	9957.47
918.70	9852.20
918.87	9858.35
919.04	9836.39
919.21	9839.59
919.39	9716.06
919.56	9749.31
919.73	9606.20
919.91	9625.29
920.08	9581.38
920.25	9535.92
920.42	9583.43
920.60	9450.47
920.77	9421.15
920.94	9497.74
921.11	9380.68
921.29	9454.00
921.46	9350.45
921.63	9472.92
921.81	9338.25
921.98	9351.68
922.15	9296.30
922.32	9353.16
922.50	9275.74
922.67	9298.11
922.84	9187.35
923.01	9175.88
923.19	9148.11
923.36	9170.39
923.53	9028.84
923.70	9097.24
923.87	9034.49
924.05	9045.30
924.22	8956.91
924.39	8986.49
924.56	8878.27
924.74	8885.07
924.91	8910.47
925.08	8857.96
925.25	8856.56
925.43	8874.26
925.60	8838.95
925.77	8920.87
925.94	8812.16
926.11	8797.91
926.29	8748.51
926.46	8717.14
926.63	8705.01
926.80	8709.68
926.97	8655.13
927.15	8674.29
927.32	8617.61
927.49	8588.12
927.66	8613.51
927.83	8631.53
928.01	8527.17
928.18	8530.53
928.35	8437.55
928.52	8521.93
928.69	8430.75
928.87	8405.68
929.04	8396.02
929.21	8407.32
929.38	8327.86
929.55	8331.87
929.72	8281.00
929.90	8304.51
930.07	8269.37
930.24	8221.53
930.41	8209.90
930.58	8187.78
930.75	8164.43
930.93	8123.47
931.10	8081.94
931.27	8042.46
931.44	7991.34
931.61	7966.93
931.78	8010.18
931.95	7954.72
932.13	7908.60
932.30	7993.47
932.47	7878.95
932.64	7933.09
932.81	7890.82
932.98	7902.05
933.15	7864.53
933.33	7796.13
933.50	7864.20
933.67	7782.04
933.84	7771.71
934.01	7771.80
934.18	7733.54
934.35	7742.14
934.52	7655.55
934.70	7724.86
934.87	7674.31
935.04	7632.45
935.21	7604.60
935.38	7583.71
935.55	7567.16
935.72	7609.51
935.89	7511.95
936.06	7555.04
936.24	7465.01
936.41	7538.25
936.58	7454.03
936.75	7459.19
936.92	7451.58
937.09	7460.01
937.26	7385.79
937.43	7411.60
937.60	7435.76
937.77	7423.15
937.94	7382.03
938.12	7410.94
938.29	7373.42
938.46	7393.00
938.63	7311.58
938.80	7369.41
938.97	7305.51
939.14	7296.99
939.31	7269.39
939.48	7306.99
939.65	7189.84
939.82	7170.68
939.99	7163.14
940.16	7179.93
940.33	7134.06
940.50	7105.88
940.67	7088.59
940.85	7137.83
941.02	7094.98
941.19	7118.25
941.36	7074.01
941.53	7123.00
941.70	7089.99
941.87	7054.43
942.04	7047.22
942.21	7070.90
942.38	7058.53
942.55	7026.25
942.72	7023.71
942.89	7003.40
943.06	6925.66
943.23	6913.45
943.40	6875.44
943.57	6918.28
943.74	6895.10
943.91	6886.17
944.08	6851.93
944.25	6856.85
944.42	6780.17
944.59	6772.22
944.76	6815.39
944.93	6758.95
945.10	6727.09
945.27	6718.65
945.44	6655.16
945.61	6681.38
945.78	6596.02
945.95	6643.04
946.12	6561.20
946.29	6600.52
946.46	6561.69
946.63	6591.59
946.80	6554.16
946.97	6541.54
947.14	6528.11
947.31	6606.09
947.48	6546.29
947.65	6551.29
947.82	6486.16
947.99	6542.93
948.16	6442.42
948.33	6495.42
948.50	6482.89
948.67	6473.79
948.84	6436.27
949.01	6409.40
949.18	6392.20
949.35	6421.45
949.52	6370.74
949.68	6393.92
949.85	6385.65
950.02	6378.44
950.19	6346.33
950.36	6307.17
950.53	6316.43
950.70	6295.13
950.87	6263.92
951.04	6302.17
951.21	6230.58
951.38	6235.41
951.55	6253.68
951.72	6211.16
951.89	6196.09
952.06	6211.49
952.23	6195.43
952.39	6186.42
952.56	6135.39
952.73	6174.46
952.90	6120.31
953.07	6147.92
953.24	6094.76
953.41	6141.04
953.58	6099.75
953.75	6147.02
953.92	6079.60
954.09	6094.26
954.25	6047.98
954.42	6067.48
954.59	6023.49
954.76	6018.24
954.93	5968.60
955.10	6018.90
955.27	5992.03
955.44	5968.19
955.61	5938.45
955.77	5987.36
955.94	5925.67
956.11	5935.01
956.28	5902.16
956.45	5908.64
956.62	5893.15
956.79	5922.15
956.96	5924.45
957.12	5868.74
957.29	5840.81
957.46	5845.89
957.63	5825.41
957.80	5799.44
957.97	5816.31
958.14	5884.88
958.30	5804.93
958.47	5794.69
958.64	5775.03
958.81	5832.12
958.98	5796.24
959.15	5815.17
959.32	5828.85
959.48	5769.46
959.65	5758.97
959.82	5787.40
959.99	5714.32
960.16	5738.74
960.33	5706.05
960.49	5684.67
960.66	5657.55
960.83	5651.08
961.00	5622.00
961.17	5635.27
961.33	5603.65
961.50	5588.74
961.67	5596.44
961.84	5595.38
962.01	5563.02
962.18	5601.93
962.34	5585.30
962.51	5565.72
962.68	5513.54
962.85	5562.77
963.02	5504.28
963.18	5540.90
963.35	5524.11
963.52	5538.20
963.69	5537.95
963.86	5569.57
964.02	5492.57
964.19	5504.61
964.36	5452.92
964.53	5481.92
964.69	5430.80
964.86	5481.51
965.03	5409.83
965.20	5448.74
965.37	5367.81
965.53	5366.09
965.70	5351.26
965.87	5382.31
966.04	5333.32
966.20	5359.70
966.37	5329.22
966.54	5288.10
966.71	5317.51
966.87	5311.28
967.04	5307.35
967.21	5289.99
967.38	5277.70
967.54	5311.69
967.71	5288.43
967.88	5280.40
968.05	5252.14
968.21	5254.92
968.38	5225.52
968.55	5248.62
968.72	5232.81
968.88	5197.66
969.05	5238.21
969.22	5195.45
969.39	5209.87
969.55	5212.90
969.72	5171.20
969.89	5195.86
970.05	5222.98
970.22	5222.32
970.39	5169.48
970.56	5215.85
970.72	5167.52
970.89	5183.82
971.06	5137.29
971.22	5155.39
971.39	5150.97
971.56	5145.73
971.73	5113.29
971.89	5149.99
972.06	5108.29
972.23	5138.68
972.39	5085.84
972.56	5075.19
972.73	5043.00
972.89	5073.88
973.06	5081.01
973.23	5078.06
973.39	5037.68
973.56	5056.27
973.73	5038.90
973.89	5064.05
974.06	5028.34
974.23	5041.69
974.39	5003.52
974.56	5029.40
974.73	4986.80
974.89	5001.30
975.06	4974.02
975.23	5004.99
975.39	4935.60
975.56	4961.82
975.73	4925.04
975.89	4914.31
976.06	4929.30
976.23	4916.60
976.39	4910.70
976.56	4930.03
976.73	4917.66
976.89	4903.66
977.06	4875.97
977.23	4851.88
977.39	4857.62
977.56	4867.78
977.72	4839.35
977.89	4874.82
978.06	4837.38
978.22	4821.49
978.39	4841.73
978.56	4842.95
978.72	4828.95
978.89	4831.90
979.05	4817.48
979.22	4832.96
979.39	4821.57
979.55	4826.82
979.72	4793.15
979.88	4819.69
980.05	4767.02
980.22	4817.72
980.38	4743.34
980.55	4758.99
980.71	4734.41
980.88	4752.35
981.05	4714.42
981.21	4710.33
981.38	4709.75
981.54	4727.69
981.71	4691.73
981.88	4694.60
982.04	4702.14
982.21	4692.14
982.37	4651.76
982.54	4711.15
982.70	4658.15
982.87	4709.43
983.04	4654.79
983.20	4713.28
983.37	4640.53
983.53	4676.17
983.70	4636.93
983.86	4625.13
984.03	4610.22
984.20	4623.49
984.36	4621.61
984.53	4599.90
984.69	4590.40
984.86	4575.00
985.02	4580.24
985.19	4619.07
985.35	4562.14
985.52	4607.19
985.68	4562.71
985.85	4565.58
986.02	4576.39
986.18	4575.98
986.35	4569.35
986.51	4577.78
986.68	4577.62
986.84	4552.96
987.01	4541.66
987.17	4562.14
987.34	4528.63
987.50	4539.77
987.67	4521.01
987.83	4547.47
988.00	4524.62
988.16	4525.52
988.33	4507.01
988.49	4515.28
988.66	4511.10
988.82	4513.23
988.99	4485.30
989.15	4488.57
989.32	4429.67
989.48	4466.87
989.65	4407.88
989.81	4417.55
989.98	4415.09
990.14	4406.98
990.31	4405.59
990.47	4404.77
990.64	4401.90
990.80	4396.33
990.97	4367.66
991.13	4375.36
991.30	4377.57
991.46	4372.66
991.63	4356.52
991.79	4386.01
991.95	4341.37
992.12	4378.72
992.28	4376.26
992.45	4363.81
992.61	4387.73
992.78	4357.50
992.94	4354.15
993.11	4378.31
993.27	4348.66
993.44	4372.33
993.60	4346.45
993.76	4357.34
993.93	4342.51
994.09	4342.35
994.26	4325.15
994.42	4331.95
994.59	4307.53
994.75	4329.41
994.91	4314.91
995.08	4284.92
995.24	4263.87
995.41	4290.33
995.57	4264.03
995.74	4276.24
995.90	4257.89
996.06	4271.41
996.23	4240.61
996.39	4221.03
996.56	4227.17
996.72	4230.37
996.88	4228.15
997.05	4235.69
997.21	4216.60
997.38	4253.39
997.54	4201.94
997.70	4243.23
997.87	4227.25
998.03	4233.15
998.20	4175.81
998.36	4186.38
998.52	4179.82
998.69	4218.49
998.85	4188.67
999.02	4177.53
999.18	4180.23
999.34	4198.25
999.51	4176.71
999.67	4204.89
999.83	4168.44
1000.00	4182.94
1000.16	4154.59
1000.33	4159.75
1000.49	4147.46
1000.65	4175.73
1000.82	4176.38
1000.98	4164.75
1001.14	4146.07
1001.31	4172.37
1001.47	4162.70
1001.63	4160.41
1001.80	4118.30
1001.96	4130.43
1002.12	4129.77
1002.29	4120.27
1002.45	4110.36
1002.61	4128.05
1002.78	4107.32
1002.94	4108.14
1003.10	4089.71
1003.27	4111.09
1003.43	4115.76
1003.59	4107.57
1003.76	4079.06
1003.92	4091.35
1004.08	4082.42
1004.25	4089.22
1004.41	4073.90
1004.57	4041.95
1004.74	4027.62
1004.90	4070.13
1005.06	4026.22
1005.23	4026.06
1005.39	4016.80
1005.55	4022.87
1005.71	4034.33
1005.88	4023.52
1006.04	4041.46
1006.20	4036.55
1006.37	3986.82
1006.53	4016.23
1006.69	3994.03
1006.85	4022.87
1007.02	4000.67
1007.18	4002.71
1007.34	3986.41
1007.51	4010.74
1007.67	3973.14
1007.83	3976.66
1007.99	3969.05
1008.16	3967.00
1008.32	3942.26
1008.48	3964.87
1008.64	3954.55
1008.81	3964.29
1008.97	3925.46
1009.13	3960.69
1009.29	3950.70
1009.46	3953.73
1009.62	3933.33
1009.78	3936.28
1009.95	3950.29
1010.11	3947.83
1010.27	3915.96
1010.43	3930.13
1010.59	3942.42
1010.76	3928.99
1010.92	3911.70
1011.08	3907.61
1011.24	3891.39
1011.41	3949.71
1011.57	3897.61
1011.73	3905.64
1011.89	3894.25
1012.06	3899.74
1012.22	3863.94
1012.38	3895.65
1012.54	3881.56
1012.70	3877.62
1012.87	3866.07
1013.03	3913.01
1013.19	3882.46
1013.35	3880.33
1013.51	3847.56
1013.68	3870.58
1013.84	3838.22
1014.00	3847.89
1014.16	3819.05
1014.32	3831.59
1014.49	3828.64
1014.65	3858.46
1014.81	3822.57
1014.97	3835.76
1015.13	3824.95
1015.30	3832.49
1015.46	3826.18
1015.62	3843.14
1015.78	3829.95
1015.94	3812.09
1016.10	3835.27
1016.27	3815.20
1016.43	3790.30
1016.59	3814.46
1016.75	3817.66
1016.91	3807.91
1017.07	3788.82
1017.24	3812.42
1017.40	3788.41
1017.56	3821.02
1017.72	3782.11
1017.88	3777.19
1018.04	3770.97
1018.21	3761.63
1018.37	3784.15
1018.53	3774.57
1018.69	3760.97
1018.85	3785.88
1019.01	3756.38
1019.17	3770.39
1019.34	3757.86
1019.50	3754.83
1019.66	3758.92
1019.82	3747.13
1019.98	3742.38
1020.14	3747.78
1020.30	3749.75
1020.46	3750.98
1020.63	3726.07
1020.79	3740.41
1020.95	3724.35
1021.11	3723.94
1021.27	3708.30
1021.43	3711.49
1021.59	3709.36
1021.75	3692.73
1021.91	3670.86
1022.07	3690.60
1022.24	3683.72
1022.40	3681.18
1022.56	3672.75
1022.72	3707.56
1022.88	3685.85
1023.04	3697.08
1023.20	3666.03
1023.36	3687.08
1023.52	3698.96
1023.68	3682.90
1023.84	3677.82
1024.01	3682.82
1024.17	3670.53
1024.33	3691.91
1024.49	3667.58
1024.65	3679.13
1024.81	3663.24
1024.97	3668.40
1025.13	3631.79
1025.29	3653.74
1025.45	3648.17
1025.61	3665.62
1025.77	3658.33
1025.93	3657.67
1026.09	3655.38
1026.25	3669.55
1026.41	3646.29
1026.57	3634.16
1026.73	3653.99
1026.90	3641.53
1027.06	3638.26
1027.22	3669.96
1027.38	3639.40
1027.54	3660.70
1027.70	3640.88
1027.86	3632.61
1028.02	3622.61
1028.18	3638.91
1028.34	3611.14
1028.50	3626.05
1028.66	3602.62
1028.82	3627.03
1028.98	3590.74
1029.14	3594.51
1029.30	3600.49
1029.46	3608.03
1029.62	3604.83
1029.78	3583.04
1029.94	3595.50
1030.10	3599.76
1030.26	3571.49
1030.42	3582.80
1030.58	3583.78
1030.74	3592.38
1030.90	3547.25
1031.06	3570.67
1031.22	3572.23
1031.38	3582.39
1031.54	3553.23
1031.70	3566.41
1031.86	3582.14
1032.02	3569.69
1032.18	3540.94
1032.34	3546.75
1032.50	3529.63
1032.66	3558.63
1032.82	3534.96
1032.98	3561.09
1033.14	3555.77
1033.30	3546.67
1033.45	3531.76
1033.61	3559.37
1033.77	3545.36
1033.93	3547.00
1034.09	3523.41
1034.25	3531.76
1034.41	3533.65
1034.57	3540.20
1034.73	3529.22
1034.89	3553.23
1035.05	3545.20
1035.21	3527.34
1035.37	3524.55
1035.53	3517.84
1035.69	3512.27
1035.85	3523.16
1036.01	3511.61
1036.16	3522.83
1036.32	3498.26
1036.48	3501.86
1036.64	3476.06
1036.80	3507.35
1036.96	3492.52
1037.12	3493.51
1037.28	3488.92
1037.44	3494.65
1037.60	3489.00
1037.76	3488.92
1037.91	3460.99
1038.07	3478.35
1038.23	3482.12
1038.39	3490.97
1038.55	3475.24
1038.71	3484.25
1038.87	3460.90
1039.03	3500.06
1039.19	3473.68
1039.35	3470.82
1039.50	3467.13
1039.66	3472.78
1039.82	3449.11
1039.98	3475.24
1040.14	3446.57
1040.30	3460.99
1040.46	3459.59
1040.62	3446.57
1040.77	3461.15
1040.93	3480.73
1041.09	3459.67
1041.25	3460.58
1041.41	3451.97
1041.57	3459.92
1041.73	3459.92
1041.88	3459.92

