SpectraSuite Data File
++++++++++++++++++++++++++++++++++++
Date: Tue Sep 20 12:17:38 EDT 2022
User: Laboratoire
Dark Spectrum Present: No
Reference Spectrum Present: No
Number of Sampled Component Spectra: 1
Spectrometers: FLMT00174
Integration Time (usec): 15000 (FLMT00174)
Spectra Averaged: 25 (FLMT00174)
Boxcar Smoothing: 0 (FLMT00174)
Correct for Electrical Dark: No (FLMT00174)
Strobe/Lamp Enabled: No (FLMT00174)
Correct for Detector Non-linearity: No (FLMT00174)
Correct for Stray Light: No (FLMT00174)
Number of Pixels in Processed Spectrum: 3648
>>>>>Begin Processed Spectral Data<<<<<
345.74	3184.92
345.96	3184.92
346.18	3184.92
346.39	3180.17
346.61	3229.48
346.83	3221.54
347.05	3221.13
347.27	3228.42
347.49	3225.63
347.71	3244.31
347.93	3243.90
348.15	3224.16
348.36	3225.80
348.58	3238.41
348.80	3227.35
349.02	3219.41
349.24	3235.63
349.46	3285.76
349.68	3274.54
349.90	3294.03
350.11	3274.95
350.33	3288.55
350.55	3278.55
350.77	3272.08
350.99	3275.44
351.21	3293.22
351.43	3260.12
351.65	3286.66
351.86	3268.07
352.08	3275.03
352.30	3281.01
352.52	3304.85
352.74	3264.54
352.96	3274.46
353.18	3280.19
353.39	3277.49
353.61	3274.21
353.83	3288.55
354.05	3298.70
354.27	3281.75
354.49	3269.62
354.70	3277.32
354.92	3281.01
355.14	3268.80
355.36	3284.37
355.58	3277.49
355.80	3268.72
356.02	3287.32
356.23	3283.30
356.45	3279.62
356.67	3299.93
356.89	3310.01
357.11	3281.91
357.33	3299.11
357.54	3284.78
357.76	3254.96
357.98	3273.56
358.20	3302.80
358.42	3272.57
358.63	3298.70
358.85	3273.72
359.07	3293.95
359.29	3262.09
359.51	3263.72
359.73	3269.46
359.94	3280.19
360.16	3275.28
360.38	3292.72
360.60	3278.47
360.82	3308.21
361.03	3288.14
361.25	3277.98
361.47	3304.44
361.69	3289.04
361.91	3288.38
362.12	3291.99
362.34	3278.88
362.56	3300.26
362.78	3294.94
363.00	3300.51
363.21	3271.92
363.43	3302.72
363.65	3269.46
363.87	3276.34
364.09	3291.09
364.30	3280.68
364.52	3265.04
364.74	3300.10
364.96	3284.04
365.17	3283.30
365.39	3272.74
365.61	3303.46
365.83	3287.40
366.05	3271.51
366.26	3283.30
366.48	3295.02
366.70	3299.11
366.92	3292.15
367.13	3291.50
367.35	3301.08
367.57	3292.81
367.79	3286.58
368.01	3294.61
368.22	3295.35
368.44	3278.14
368.66	3304.27
368.88	3282.16
369.09	3296.16
369.31	3288.55
369.53	3280.68
369.75	3290.27
369.96	3294.85
370.18	3291.99
370.40	3308.45
370.62	3286.42
370.83	3283.88
371.05	3293.95
371.27	3308.45
371.49	3298.46
371.70	3295.59
371.92	3280.60
372.14	3300.51
372.36	3285.92
372.57	3303.95
372.79	3297.48
373.01	3298.13
373.22	3282.40
373.44	3303.95
373.66	3291.74
373.88	3318.53
374.09	3288.05
374.31	3301.33
374.53	3283.47
374.75	3311.89
374.96	3301.16
375.18	3321.15
375.40	3292.72
375.61	3305.01
375.83	3295.35
376.05	3296.82
376.27	3315.74
376.48	3301.49
376.70	3300.34
376.92	3296.66
377.13	3298.54
377.35	3309.27
377.57	3310.42
377.79	3288.30
378.00	3294.69
378.22	3307.96
378.44	3282.16
378.65	3304.52
378.87	3309.19
379.09	3315.83
379.30	3296.90
379.52	3310.91
379.74	3313.61
379.96	3297.72
380.17	3291.17
380.39	3299.28
380.61	3332.05
380.82	3304.93
381.04	3307.96
381.26	3323.69
381.47	3321.07
381.69	3331.39
381.91	3303.29
382.12	3322.71
382.34	3336.71
382.56	3320.25
382.77	3300.18
382.99	3319.02
383.21	3312.55
383.42	3340.16
383.64	3324.18
383.86	3319.76
384.07	3331.72
384.29	3322.38
384.51	3303.70
384.72	3329.51
384.94	3315.01
385.16	3323.20
385.37	3326.47
385.59	3325.25
385.81	3347.20
386.02	3344.41
386.24	3342.86
386.46	3340.65
386.67	3336.63
386.89	3361.62
387.11	3383.49
387.32	3355.64
387.54	3351.38
387.76	3356.05
387.97	3371.28
388.19	3356.21
388.40	3350.56
388.62	3366.86
388.84	3386.77
389.05	3360.31
389.27	3375.38
389.49	3382.51
389.70	3365.55
389.92	3395.70
390.14	3372.19
390.35	3392.99
390.57	3389.22
390.78	3389.88
391.00	3361.21
391.22	3377.51
391.43	3370.06
391.65	3404.63
391.86	3415.44
392.08	3393.73
392.30	3386.28
392.51	3393.32
392.73	3421.66
392.95	3384.47
393.16	3379.39
393.38	3405.69
393.59	3375.79
393.81	3420.68
394.03	3405.53
394.24	3396.68
394.46	3384.72
394.67	3420.27
394.89	3398.65
395.11	3421.99
395.32	3414.13
395.54	3415.36
395.75	3401.59
395.97	3399.38
396.19	3377.84
396.40	3422.40
396.62	3411.83
396.83	3428.05
397.05	3396.68
397.26	3423.55
397.48	3418.22
397.70	3413.06
397.91	3421.09
398.13	3420.68
398.34	3416.67
398.56	3412.57
398.78	3417.81
398.99	3450.01
399.21	3421.83
399.42	3444.03
399.64	3408.48
399.85	3431.99
400.07	3436.90
400.29	3444.03
400.50	3441.65
400.72	3465.33
400.93	3439.44
401.15	3435.02
401.36	3459.59
401.58	3466.72
401.79	3467.46
402.01	3483.92
402.23	3466.15
402.44	3506.29
402.66	3476.63
402.87	3487.61
403.09	3487.94
403.30	3506.12
403.52	3475.40
403.73	3475.73
403.95	3505.22
404.16	3508.42
404.38	3503.75
404.60	3513.82
404.81	3543.89
405.03	3537.74
405.24	3541.18
405.46	3561.91
405.67	3564.28
405.89	3572.07
406.10	3561.01
406.32	3575.84
406.53	3593.94
406.75	3619.09
406.96	3606.64
407.18	3605.08
407.39	3597.46
407.61	3631.95
407.82	3608.52
408.04	3663.90
408.25	3645.63
408.47	3649.56
408.68	3657.26
408.90	3660.54
409.12	3676.35
409.33	3698.88
409.55	3686.75
409.76	3705.76
409.98	3684.38
410.19	3720.91
410.41	3717.80
410.62	3743.11
410.84	3723.78
411.05	3731.32
411.27	3778.83
411.48	3762.94
411.70	3772.52
411.91	3779.57
412.12	3772.69
412.34	3744.59
412.55	3766.30
412.77	3767.20
412.98	3771.95
413.20	3773.59
413.41	3783.25
413.63	3773.83
413.84	3767.85
414.06	3820.04
414.27	3773.51
414.49	3780.47
414.70	3790.63
414.92	3797.34
415.13	3774.90
415.35	3796.20
415.56	3786.37
415.78	3778.50
415.99	3782.02
416.21	3787.27
416.42	3801.77
416.63	3787.02
416.85	3788.82
417.06	3790.79
417.28	3764.66
417.49	3792.26
417.71	3803.16
417.92	3788.82
418.14	3788.91
418.35	3793.08
418.57	3775.80
418.78	3780.14
418.99	3761.22
419.21	3800.87
419.42	3800.95
419.64	3793.08
419.85	3800.21
420.07	3811.35
420.28	3796.44
420.50	3804.14
420.71	3807.17
420.92	3794.39
421.14	3803.32
421.35	3801.44
421.57	3817.00
421.78	3831.34
422.00	3824.70
422.21	3829.05
422.42	3819.63
422.64	3801.60
422.85	3843.71
423.07	3855.83
423.28	3846.66
423.50	3845.02
423.71	3863.53
423.92	3892.78
424.14	3862.14
424.35	3886.80
424.57	3891.63
424.78	3937.92
424.99	3919.89
425.21	3922.27
425.42	3923.83
425.64	3916.29
425.85	3932.92
426.06	3966.01
426.28	3957.33
426.49	3985.35
426.71	3998.78
426.92	3999.36
427.13	4003.94
427.35	4033.35
427.56	4049.49
427.78	4058.58
427.99	4053.34
428.20	4093.32
428.42	4101.51
428.63	4116.50
428.84	4092.58
429.06	4129.52
429.27	4158.03
429.49	4167.78
429.70	4191.95
429.91	4193.91
430.13	4211.28
430.34	4231.92
430.56	4244.37
430.77	4278.86
430.98	4271.65
431.20	4316.30
431.41	4343.33
431.62	4359.63
431.84	4342.92
432.05	4417.55
432.26	4408.21
432.48	4386.01
432.69	4491.44
432.91	4474.32
433.12	4493.90
433.33	4520.03
433.55	4593.10
433.76	4576.64
433.97	4567.05
434.19	4610.06
434.40	4642.01
434.61	4642.34
434.83	4671.58
435.04	4675.27
435.25	4720.98
435.47	4715.98
435.68	4732.36
435.89	4787.50
436.11	4797.90
436.32	4790.94
436.53	4805.11
436.75	4803.55
436.96	4823.95
437.17	4827.96
437.39	4845.49
437.60	4854.10
437.81	4904.39
438.03	4900.13
438.24	4911.85
438.45	4963.13
438.67	4930.03
438.88	4969.93
439.09	4971.16
439.31	4966.65
439.52	4968.13
439.73	4945.27
439.94	4925.28
440.16	4947.89
440.37	4936.67
440.58	4986.39
440.80	4970.50
441.01	4941.26
441.22	5042.84
441.44	5001.55
441.65	4974.84
441.86	4968.29
442.08	4992.62
442.29	4976.07
442.50	4980.91
442.71	4976.32
442.93	4956.49
443.14	4958.30
443.35	5002.86
443.57	4936.83
443.78	4972.14
443.99	4981.72
444.20	4935.77
444.42	4962.47
444.63	4938.64
444.84	4955.84
445.06	4972.22
445.27	4918.89
445.48	4902.51
445.69	4930.53
445.91	4917.99
446.12	4914.55
446.33	4895.14
446.54	4944.94
446.76	4908.65
446.97	4928.31
447.18	4889.73
447.39	4912.26
447.61	4910.78
447.82	4931.18
448.03	4900.71
448.25	4921.51
448.46	4946.83
448.67	4961.49
448.88	4916.85
449.10	4954.45
449.31	4953.14
449.52	4940.93
449.73	4952.56
449.95	4973.21
450.16	4960.59
450.37	5013.35
450.58	5033.83
450.79	4963.21
451.01	4986.89
451.22	4972.71
451.43	4995.57
451.64	5040.71
451.86	5017.85
452.07	5055.53
452.28	5055.04
452.49	5118.78
452.71	5019.41
452.92	5075.60
453.13	5098.54
453.34	5118.12
453.55	5143.92
453.77	5149.66
453.98	5164.81
454.19	5127.62
454.40	5186.36
454.62	5219.94
454.83	5177.43
455.04	5253.78
455.25	5192.67
455.46	5365.84
455.68	5303.99
455.89	5314.89
456.10	5328.57
456.31	5351.51
456.52	5371.49
456.74	5376.98
456.95	5453.90
457.16	5452.35
457.37	5523.04
457.58	5492.73
457.80	5515.84
458.01	5543.85
458.22	5686.80
458.43	5643.22
458.64	5656.82
458.86	5643.96
459.07	5706.95
459.28	5729.48
459.49	5801.32
459.70	5901.34
459.91	5912.16
460.13	5904.70
460.34	5934.11
460.55	5955.98
460.76	6041.92
460.97	6087.87
461.19	6082.06
461.40	6247.37
461.61	6182.08
461.82	6267.19
462.03	6309.14
462.24	6340.18
462.46	6332.07
462.67	6396.71
462.88	6469.86
463.09	6507.54
463.30	6569.97
463.51	6549.81
463.72	6713.08
463.94	6751.99
464.15	6785.41
464.36	6772.14
464.57	6942.45
464.78	6995.21
464.99	7037.31
465.20	7032.97
465.42	7187.96
465.63	7201.23
465.84	7200.90
466.05	7303.71
466.26	7387.92
466.47	7454.77
466.68	7418.40
466.90	7549.96
467.11	7611.07
467.32	7681.28
467.53	7767.45
467.74	7665.14
467.95	7808.74
468.16	7921.05
468.37	7954.56
468.59	7985.28
468.80	8131.91
469.01	8039.26
469.22	8190.32
469.43	8363.99
469.64	8302.22
469.85	8437.71
470.06	8424.77
470.28	8539.62
470.49	8401.26
470.70	8571.40
470.91	8712.80
471.12	8623.50
471.33	8810.36
471.54	8766.78
471.75	8802.50
471.96	8989.52
472.17	8907.60
472.39	9092.98
472.60	8962.89
472.81	9079.30
473.02	9080.94
473.23	9224.79
473.44	9234.54
473.65	9228.47
473.86	9268.53
474.07	9271.15
474.28	9315.14
474.49	9503.23
474.71	9444.58
474.92	9541.57
475.13	9454.49
475.34	9470.30
475.55	9482.91
475.76	9501.02
475.97	9669.94
476.18	9592.28
476.39	9717.61
476.60	9743.01
476.81	9685.01
477.02	9835.17
477.23	9800.84
477.44	9724.57
477.65	9833.94
477.87	9879.48
478.08	9864.90
478.29	9913.73
478.50	9991.79
478.71	9940.43
478.92	9965.58
479.13	9968.28
479.34	9993.19
479.55	10068.31
479.76	9993.68
479.97	10019.32
480.18	10180.70
480.39	9974.10
480.60	10167.02
480.81	10164.72
481.02	10144.65
481.23	10151.54
481.44	10250.00
481.65	10303.00
481.86	10400.24
482.07	10157.02
482.28	10487.48
482.49	10321.27
482.71	10338.72
482.92	10385.33
483.13	10463.07
483.34	10406.63
483.55	10479.46
483.76	10431.78
483.97	10521.81
484.18	10510.67
484.39	10579.81
484.60	10506.65
484.81	10685.48
485.02	10606.43
485.23	10689.82
485.44	10770.76
485.65	10795.09
485.86	10664.43
486.07	10864.15
486.28	10819.91
486.49	10876.84
486.70	10957.04
486.91	11014.30
487.12	10945.00
487.33	10931.40
487.54	11130.22
487.75	11119.24
487.96	11172.16
488.17	11141.03
488.38	11256.62
488.59	11259.08
488.80	11314.37
489.01	11318.47
489.22	11471.98
489.43	11419.64
489.64	11391.70
489.85	11605.43
490.06	11489.35
490.26	11635.33
490.47	11551.69
490.68	11820.38
490.89	11912.05
491.10	11718.56
491.31	11919.51
491.52	12022.97
491.73	12013.06
491.94	12048.86
492.15	12167.80
492.36	12252.18
492.57	12269.87
492.78	12351.05
492.99	12370.80
493.20	12500.23
493.41	12567.16
493.62	12615.41
493.83	12579.20
494.04	12720.26
494.25	12845.52
494.46	12846.91
494.67	12904.25
494.88	13071.61
495.08	13108.31
495.29	13260.27
495.50	13399.78
495.71	13353.66
495.92	13485.79
496.13	13530.03
496.34	13556.32
496.55	13708.86
496.76	13939.13
496.97	13793.07
497.18	14023.02
497.39	14063.89
497.60	14328.41
497.81	14224.21
498.02	14421.47
498.22	14324.31
498.43	14695.90
498.64	14679.59
498.85	14747.91
499.06	14848.26
499.27	15087.80
499.48	14950.34
499.69	15147.19
499.90	15303.41
500.11	15463.47
500.32	15721.11
500.52	15599.54
500.73	15924.68
500.94	16039.20
501.15	16095.97
501.36	16116.20
501.57	16204.68
501.78	16490.82
501.99	16710.85
502.20	16696.76
502.41	16806.78
502.61	16829.63
502.82	17137.57
503.03	17137.89
503.24	17476.30
503.45	17380.29
503.66	17720.34
503.87	17752.53
504.08	18000.25
504.28	17998.78
504.49	18116.82
504.70	18271.98
504.91	18489.72
505.12	18447.20
505.33	18867.03
505.54	18872.52
505.75	19047.42
505.95	19274.17
506.16	19316.44
506.37	19344.29
506.58	19712.03
506.79	19594.88
507.00	19991.37
507.21	19881.84
507.41	19981.38
507.62	20191.83
507.83	20608.96
508.04	20352.47
508.25	20759.52
508.46	20705.13
508.67	20990.86
508.87	20978.49
509.08	21324.84
509.29	21227.36
509.50	21427.73
509.71	21583.05
509.92	21688.97
510.12	21553.07
510.33	21799.15
510.54	21835.44
510.75	21995.10
510.96	22229.47
511.17	22428.94
511.37	22423.21
511.58	22650.12
511.79	22561.98
512.00	22614.49
512.21	22866.23
512.42	22926.44
512.62	22939.05
512.83	23091.91
513.04	23015.24
513.25	23280.57
513.46	22796.10
513.66	23449.82
513.87	23281.39
514.08	23538.04
514.29	23417.95
514.50	23352.99
514.71	23596.37
514.91	23439.58
515.12	23439.41
515.33	23633.07
515.54	23546.32
515.75	23776.34
515.95	23576.71
516.16	23533.86
516.37	23795.27
516.58	23818.29
516.78	23722.03
516.99	23796.66
517.20	23772.82
517.41	23696.88
517.62	23745.95
517.82	23615.95
518.03	23847.78
518.24	24065.19
518.45	23550.66
518.66	23776.34
518.86	23583.83
519.07	23827.87
519.28	23351.60
519.49	23734.16
519.69	23673.62
519.90	23600.79
520.11	23558.77
520.32	23417.05
520.52	23581.13
520.73	23227.24
520.94	23594.16
521.15	23400.99
521.36	23044.48
521.56	23402.47
521.77	22952.90
521.98	23191.44
522.19	22832.15
522.39	23005.16
522.60	22810.77
522.81	22822.32
523.02	22707.47
523.22	22782.92
523.43	22815.68
523.64	22585.98
523.84	22501.36
524.05	22650.12
524.26	22490.06
524.47	22316.47
524.67	22290.99
524.88	22335.80
525.09	22391.51
525.30	22139.44
525.50	22080.71
525.71	22110.28
525.92	22048.84
526.13	22066.62
526.33	21900.98
526.54	21708.96
526.75	21762.54
526.95	21914.41
527.16	21467.87
527.37	21696.67
527.58	21669.64
527.78	21552.50
527.99	21602.38
528.20	21631.87
528.40	21345.32
528.61	21197.87
528.82	21475.57
529.03	21257.18
529.23	21208.93
529.44	21275.86
529.65	21215.32
529.85	21129.79
530.06	21081.30
530.27	20993.56
530.47	20809.33
530.68	21185.83
530.89	20818.09
531.09	21085.80
531.30	20905.34
531.51	20700.38
531.72	20867.25
531.92	20758.54
532.13	20899.60
532.34	20745.51
532.54	20691.94
532.75	20809.41
532.96	20677.69
533.16	20762.96
533.37	20741.34
533.58	20503.94
533.78	20708.65
533.99	20679.08
534.20	20435.04
534.40	20525.89
534.61	20555.13
534.82	20551.20
535.02	20675.15
535.23	20606.99
535.44	20644.02
535.64	20468.14
535.85	20550.30
536.06	20503.85
536.26	20482.31
536.47	20460.35
536.68	20675.47
536.88	20438.89
537.09	20669.98
537.29	20338.38
537.50	20759.36
537.71	20525.97
537.91	20595.60
538.12	20628.86
538.33	20530.40
538.53	20635.50
538.74	20675.23
538.95	20686.04
539.15	20628.53
539.36	20803.76
539.56	20892.72
539.77	20730.44
539.98	20711.27
540.18	20810.23
540.39	20697.59
540.60	20799.25
540.80	20921.64
541.01	20854.55
541.21	20872.82
541.42	20991.19
541.63	20922.79
541.83	21090.39
542.04	21113.08
542.25	21076.06
542.45	21263.98
542.66	21161.33
542.86	21314.93
543.07	20970.63
543.28	21419.79
543.48	21383.25
543.69	21655.96
543.89	21524.56
544.10	21918.92
544.31	21808.41
544.51	21745.41
544.72	21903.84
544.92	21863.05
545.13	22105.45
545.33	22021.23
545.54	21946.52
545.75	22082.67
545.95	21957.58
546.16	21985.76
546.36	22407.24
546.57	22106.76
546.78	21862.39
546.98	22224.15
547.19	22032.46
547.39	22456.06
547.60	22609.66
547.80	22852.96
548.01	22997.87
548.22	22880.89
548.42	23029.57
548.63	23186.53
548.83	23121.32
549.04	23335.38
549.24	23190.54
549.45	23313.01
549.65	23570.73
549.86	23373.14
550.07	23503.39
550.27	23787.40
550.48	23947.88
550.68	23941.49
550.89	24020.54
551.09	24205.43
551.30	24302.84
551.50	24399.58
551.71	24317.34
551.91	24419.24
552.12	24463.07
552.33	24820.73
552.53	24587.91
552.74	25047.07
552.94	25091.71
553.15	25018.40
553.35	25281.85
553.56	25173.06
553.76	25545.30
553.97	25474.93
554.17	25705.53
554.38	26157.72
554.58	25892.22
554.79	26159.69
554.99	25807.19
555.20	25967.10
555.40	26315.58
555.61	26143.22
555.81	26159.85
556.02	26764.58
556.22	26771.70
556.43	26730.50
556.63	26919.07
556.84	27016.23
557.04	27421.40
557.25	27163.19
557.45	27542.23
557.66	27559.52
557.86	27577.62
558.07	27866.22
558.27	27680.35
558.48	27798.39
558.68	27926.10
558.89	28079.62
559.09	28171.37
559.30	28160.23
559.50	28400.82
559.71	28301.78
559.91	28802.88
560.12	28698.43
560.32	28809.10
560.53	29058.46
560.73	28905.52
560.94	29239.26
561.14	29073.62
561.35	29471.50
561.55	29353.13
561.76	29499.11
561.96	29236.39
562.17	29550.39
562.37	29729.87
562.57	29617.64
562.78	29712.83
562.98	29979.40
563.19	29990.21
563.39	30268.81
563.60	30294.62
563.80	30092.03
564.01	30435.52
564.21	30376.46
564.42	30347.05
564.62	30410.29
564.82	30687.99
565.03	30420.36
565.23	30580.76
565.44	30813.66
565.64	30716.83
565.85	30998.14
566.05	30977.90
566.25	31176.80
566.46	31028.53
566.66	31139.28
566.87	31003.87
567.07	30976.76
567.28	31037.95
567.48	31259.05
567.68	30838.97
567.89	31386.60
568.09	31115.36
568.30	31017.31
568.50	31197.36
568.71	31044.67
568.91	31262.41
569.11	30920.56
569.32	31130.52
569.52	31276.66
569.73	30840.20
569.93	31271.34
570.13	31048.27
570.34	30834.46
570.54	31070.23
570.75	30919.17
570.95	30838.07
571.15	30754.92
571.36	31085.63
571.56	30846.01
571.77	30724.20
571.97	30493.19
572.17	30891.89
572.38	30591.57
572.58	30799.16
572.79	30489.42
572.99	30507.20
573.19	30486.31
573.40	30306.50
573.60	30327.39
573.81	30145.94
574.01	30152.00
574.21	30072.29
574.42	30058.04
574.62	29971.61
574.82	30255.71
575.03	29876.01
575.23	30137.74
575.43	29861.35
575.64	29700.71
575.84	29947.20
576.05	29539.66
576.25	29560.79
576.45	29466.01
576.66	29682.60
576.86	29241.96
577.06	29431.03
577.27	29145.30
577.47	29122.28
577.67	29094.84
577.88	28682.79
578.08	28869.56
578.28	28932.97
578.49	28675.49
578.69	28690.24
578.89	28393.45
579.10	28429.74
579.30	28702.45
579.50	28425.81
579.71	28145.48
579.91	28312.59
580.11	28052.75
580.32	27828.95
580.52	27665.68
580.72	27860.40
580.93	27252.89
581.13	27348.82
581.33	27540.92
581.54	27285.25
581.74	27217.42
581.94	27125.51
582.15	27289.59
582.35	26970.77
582.55	26888.93
582.76	26634.08
582.96	26803.90
583.16	26473.76
583.37	26686.84
583.57	26419.78
583.77	26703.79
583.97	26114.14
584.18	26564.78
584.38	26168.70
584.58	25904.02
584.79	25897.79
584.99	25699.30
585.19	25590.60
585.40	25501.14
585.60	25646.14
585.80	25397.60
586.00	25565.29
586.21	25429.22
586.41	25403.58
586.61	25422.91
586.82	25186.98
587.02	25044.86
587.22	25088.60
587.42	24753.14
587.63	24922.80
587.83	24608.23
588.03	24723.16
588.23	24363.95
588.44	24414.65
588.64	24211.58
588.84	24275.15
589.05	24279.32
589.25	24311.52
589.45	24181.92
589.65	24177.99
589.86	24145.22
590.06	24006.37
590.26	23873.91
590.46	23940.51
590.67	23627.99
590.87	23894.63
591.07	23766.92
591.27	23532.23
591.48	23665.10
591.68	23323.66
591.88	23688.44
592.08	23334.56
592.29	23322.27
592.49	23180.71
592.69	23276.89
592.89	23047.59
593.10	23156.05
593.30	23063.57
593.50	23401.07
593.70	22795.20
593.90	23214.46
594.11	22995.99
594.31	23060.62
594.51	22993.04
594.71	22915.62
594.92	22858.69
595.12	22692.23
595.32	22622.44
595.52	22661.76
595.72	22329.17
595.93	22644.64
596.13	22393.88
596.33	22320.48
596.53	22463.19
596.73	22314.59
596.94	22206.53
597.14	22391.02
597.34	22229.06
597.54	22376.84
597.74	22252.74
597.95	22298.04
598.15	22226.11
598.35	22208.83
598.55	22144.69
598.75	22108.40
598.96	22195.97
599.16	22012.31
599.36	22075.55
599.56	22131.82
599.76	21973.48
599.97	22200.64
600.17	21993.22
600.37	22078.66
600.57	21820.53
600.77	22253.72
600.97	21964.96
601.18	22238.16
601.38	21973.64
601.58	22025.41
601.78	21838.56
601.98	21740.66
602.18	21754.83
602.39	21950.29
602.59	21894.42
602.79	21726.33
602.99	21869.85
603.19	21986.09
603.39	21904.50
603.60	21993.05
603.80	22036.39
604.00	21956.76
604.20	21950.95
604.40	21993.96
604.60	21777.94
604.80	21795.30
605.01	21873.78
605.21	21811.36
605.41	21780.56
605.61	21806.28
605.81	21907.29
606.01	22113.48
606.21	21882.96
606.42	22110.53
606.62	21979.37
606.82	22188.68
607.02	22101.43
607.22	22130.84
607.42	22218.00
607.62	21904.01
607.82	21910.56
608.03	22023.20
608.23	22035.00
608.43	22061.70
608.63	22244.22
608.83	22063.01
609.03	22115.20
609.23	22158.86
609.43	22179.75
609.63	22106.59
609.84	22002.88
610.04	22315.98
610.24	22230.86
610.44	22288.29
610.64	22204.08
610.84	22427.96
611.04	22669.95
611.24	22454.91
611.44	22214.15
611.64	22550.51
611.85	22567.47
612.05	22573.86
612.25	22628.01
612.45	22396.75
612.65	22594.91
612.85	22537.24
613.05	22415.59
613.25	22723.77
613.45	22598.52
613.65	22769.81
613.85	22546.58
614.05	22699.60
614.25	22751.79
614.46	22722.05
614.66	22689.45
614.86	22818.30
615.06	22932.17
615.26	23049.81
615.46	22772.35
615.66	23173.34
615.86	23245.10
616.06	23128.12
616.26	23270.33
616.46	23525.67
616.66	23270.82
616.86	23483.16
617.06	23283.03
617.26	23565.40
617.46	23364.05
617.66	23309.57
617.86	23193.98
618.07	23460.87
618.27	23404.43
618.47	23527.06
618.67	23574.09
618.87	23733.01
619.07	23534.11
619.27	23611.93
619.47	23713.76
619.67	24072.89
619.87	23914.95
620.07	24222.23
620.27	24189.13
620.47	24030.62
620.67	24249.75
620.87	24212.32
621.07	24356.25
621.27	24378.20
621.47	24266.46
621.67	24405.40
621.87	24365.26
622.07	24481.75
622.27	24592.34
622.47	24524.51
622.67	24572.35
622.87	24556.78
623.07	24909.36
623.27	25064.11
623.47	24789.76
623.67	25073.36
623.87	25185.67
624.07	25160.44
624.27	24873.40
624.47	25097.69
624.67	25012.50
624.87	25229.01
625.07	25135.29
625.27	25521.54
625.47	25299.70
625.67	25403.33
625.87	25513.19
626.07	25591.42
626.27	25711.51
626.47	25696.60
626.67	25723.14
626.87	25690.54
627.07	25876.33
627.27	25832.59
627.47	25898.78
627.67	25910.82
627.87	25766.23
628.07	25983.81
628.27	25870.92
628.47	25820.54
628.67	26064.33
628.86	26049.34
629.06	26066.71
629.26	26049.26
629.46	26391.19
629.66	26248.73
629.86	26009.29
630.06	26432.56
630.26	26373.58
630.46	26636.13
630.66	26427.15
630.86	26710.02
631.06	26667.99
631.26	26738.44
631.46	26977.16
631.66	26990.43
631.86	26710.92
632.06	26861.40
632.26	26710.92
632.45	26584.27
632.65	26735.41
632.85	26847.31
633.05	26851.08
633.25	26917.85
633.45	26697.89
633.65	26797.10
633.85	27246.75
634.05	26778.75
634.25	27143.61
634.45	27049.16
634.65	27193.91
634.84	27020.08
635.04	27253.22
635.24	27203.01
635.44	27481.20
635.64	27424.27
635.84	27588.35
636.04	27498.98
636.24	27411.49
636.44	27439.75
636.64	27031.06
636.84	27543.05
637.03	27094.95
637.23	27256.91
637.43	27169.42
637.63	27212.84
637.83	27235.20
638.03	27399.12
638.23	27011.15
638.43	27397.97
638.62	27423.78
638.82	27000.58
639.02	27516.02
639.22	27379.54
639.42	27528.39
639.62	27454.33
639.82	27462.69
640.02	27484.40
640.21	27542.56
640.41	27307.04
640.61	27429.18
640.81	27488.00
641.01	27316.13
641.21	27237.33
641.41	27394.69
641.61	27092.91
641.80	27192.03
642.00	27348.98
642.20	27390.44
642.40	27014.18
642.60	27097.25
642.80	27188.42
642.99	26766.71
643.19	27034.91
643.39	26706.74
643.59	26965.52
643.79	26897.45
643.99	27116.66
644.19	26893.52
644.38	26633.18
644.58	26796.52
644.78	26773.51
644.98	26731.23
645.18	26823.80
645.38	26820.12
645.57	26556.75
645.77	26533.07
645.97	26437.56
646.17	26521.77
646.37	26485.81
646.56	26306.40
646.76	26278.63
646.96	26303.86
647.16	26229.40
647.36	26151.82
647.55	26138.06
647.75	26238.90
647.95	26106.44
648.15	26278.72
648.35	26117.01
648.55	26186.72
648.74	25983.97
648.94	25946.62
649.14	26169.03
649.34	25847.41
649.54	25834.14
649.73	25816.94
649.93	25623.69
650.13	25524.33
650.33	25354.02
650.52	25431.27
650.72	25619.19
650.92	25338.21
651.12	25257.52
651.32	25211.07
651.51	25320.59
651.71	25203.29
651.91	25256.70
652.11	25134.47
652.30	25121.53
652.50	25091.47
652.70	24980.30
652.90	24740.45
653.10	24751.59
653.29	24511.07
653.49	24658.69
653.69	24304.06
653.89	24448.41
654.08	24124.74
654.28	24490.35
654.48	24205.02
654.68	24314.71
654.87	23870.39
655.07	23801.66
655.27	23900.20
655.47	23599.89
655.66	23627.99
655.86	23458.17
656.06	23753.98
656.26	23405.09
656.45	23515.60
656.65	23590.96
656.85	23381.82
657.04	23111.08
657.24	23077.17
657.44	23087.08
657.64	23129.76
657.83	22681.99
658.03	23014.17
658.23	22903.25
658.43	22745.72
658.62	22802.08
658.82	22564.77
659.02	22461.06
659.21	22424.44
659.41	22257.32
659.61	22257.65
659.81	22166.89
660.00	22081.36
660.20	22094.31
660.40	21988.71
660.59	22118.14
660.79	21891.07
660.99	22167.21
661.19	21959.47
661.38	21982.24
661.58	21771.55
661.78	21954.55
661.97	21872.14
662.17	22008.46
662.37	21525.13
662.56	21433.14
662.76	21343.77
662.96	21279.46
663.15	21224.33
663.35	21199.84
663.55	21060.33
663.74	20869.21
663.94	20984.88
664.14	20766.57
664.33	20828.33
664.53	20705.13
664.73	20783.69
664.93	20453.72
665.12	20544.98
665.32	20406.37
665.52	20380.81
665.71	20339.20
665.91	20326.01
666.10	20254.41
666.30	20376.47
666.50	20240.48
666.69	20233.44
666.89	20369.34
667.09	20430.04
667.28	20166.18
667.48	20058.38
667.68	19969.09
667.87	19799.84
668.07	19666.81
668.27	19757.33
668.46	19734.23
668.66	19634.04
668.86	19698.10
669.05	19362.07
669.25	19547.21
669.44	19450.38
669.64	19500.10
669.84	19361.01
670.03	19538.77
670.23	19211.18
670.43	19160.06
670.62	19095.51
670.82	19095.10
671.01	19258.44
671.21	19157.11
671.41	19141.95
671.60	19251.81
671.80	19207.82
672.00	19009.00
672.19	19043.00
672.39	18921.76
672.58	18878.75
672.78	18773.24
672.98	18884.89
673.17	18767.01
673.37	18445.73
673.56	18507.74
673.76	18703.53
673.96	18805.84
674.15	18581.22
674.35	18690.17
674.54	18636.60
674.74	18611.86
674.94	18556.48
675.13	18590.07
675.33	18220.12
675.52	18360.61
675.72	18358.65
675.91	18213.24
676.11	18341.36
676.31	18180.47
676.50	18261.08
676.70	18197.59
676.89	18207.92
677.09	18271.57
677.28	18138.94
677.48	17882.54
677.68	17989.36
677.87	17900.07
678.07	17783.33
678.26	17910.55
678.46	17846.74
678.65	17897.36
678.85	17978.54
679.04	17801.76
679.24	17772.93
679.44	17754.09
679.63	17671.02
679.83	17590.82
680.02	17727.30
680.22	17649.39
680.41	17664.39
680.61	17659.31
680.80	17633.67
681.00	17748.11
681.19	17759.74
681.39	17717.22
681.59	17704.12
681.78	17496.70
681.98	17634.90
682.17	17322.21
682.37	17492.03
682.56	17442.96
682.76	17558.55
682.95	17494.40
683.15	17503.25
683.34	17491.54
683.54	17551.34
683.73	17540.12
683.93	17215.72
684.12	17307.22
684.32	17300.34
684.51	16955.05
684.71	17121.51
684.90	17122.17
685.10	17009.12
685.29	17024.68
685.49	17220.30
685.68	17201.63
685.88	17173.86
686.07	17104.06
686.27	17230.87
686.46	17169.35
686.66	17015.43
686.85	17119.79
687.05	17073.75
687.24	17006.74
687.44	17091.53
687.63	17122.98
687.83	16875.18
688.02	17058.76
688.22	17131.26
688.41	17057.29
688.61	17078.83
688.80	17104.96
689.00	16945.30
689.19	16776.06
689.39	16912.78
689.58	16971.44
689.77	16895.25
689.97	16970.78
690.16	16932.85
690.36	16823.24
690.55	16904.67
690.75	17079.98
690.94	16874.77
691.14	16909.34
691.33	16721.34
691.53	16834.30
691.72	16740.67
691.91	16675.79
692.11	16767.95
692.30	16849.05
692.50	16856.83
692.69	16778.84
692.89	16868.30
693.08	16876.33
693.28	16910.08
693.47	16916.55
693.66	16934.24
693.86	16962.34
694.05	16913.68
694.25	16861.83
694.44	16833.57
694.64	16830.62
694.83	16736.41
695.02	16772.70
695.22	16859.94
695.41	16824.88
695.61	16735.35
695.80	16765.33
695.99	16769.18
696.19	16752.06
696.38	16770.24
696.58	16640.73
696.77	16914.75
696.96	16872.40
697.16	16852.24
697.35	16857.24
697.55	16885.42
697.74	16783.92
697.93	16877.80
698.13	16688.65
698.32	16844.71
698.52	16838.40
698.71	16679.97
698.90	16983.23
699.10	16900.41
699.29	16839.46
699.49	16934.41
699.68	16846.43
699.87	16861.99
700.07	16989.05
700.26	17036.48
700.45	17055.48
700.65	17064.00
700.84	17250.45
701.04	17091.53
701.23	17223.66
701.42	17101.36
701.62	16982.90
701.81	17099.80
702.00	17033.04
702.20	16811.78
702.39	16900.00
702.58	17030.09
702.78	16969.22
702.97	16970.62
703.17	17062.61
703.36	17079.98
703.55	16959.56
703.75	16934.08
703.94	16988.23
704.13	16903.52
704.33	17011.17
704.52	17093.00
704.71	17138.55
704.91	17067.53
705.10	17026.81
705.29	17072.20
705.49	16995.76
705.68	17047.46
705.87	17133.14
706.07	17041.56
706.26	17224.07
706.45	17044.92
706.65	17097.34
706.84	17279.29
707.03	17447.55
707.23	17172.14
707.42	17153.70
707.61	17328.11
707.80	17122.90
708.00	17175.00
708.19	17207.69
708.38	17431.82
708.58	17153.70
708.77	17481.71
708.96	17262.00
709.16	17297.14
709.35	17596.15
709.54	17301.73
709.74	17188.52
709.93	17216.70
710.12	17410.85
710.31	17553.96
710.51	17347.77
710.70	17404.05
710.89	17461.55
711.09	17253.40
711.28	17375.70
711.47	17482.69
711.66	17491.05
711.86	17533.56
712.05	17666.68
712.24	17697.07
712.43	17569.28
712.63	17518.57
712.82	17719.03
713.01	17619.17
713.21	17481.38
713.40	17492.03
713.59	17688.96
713.78	17413.39
713.98	17592.05
714.17	17597.95
714.36	17615.48
714.55	17486.62
714.75	17652.02
714.94	17588.20
715.13	17731.31
715.32	17412.98
715.52	17696.25
715.71	17581.89
715.90	17636.21
716.09	17541.18
716.29	17671.02
716.48	17563.30
716.67	17444.76
716.86	17526.03
717.06	17552.89
717.25	17671.43
717.44	17796.19
717.63	17847.39
717.82	17712.14
718.02	17743.44
718.21	17974.20
718.40	17974.20
718.59	17946.84
718.79	17893.27
718.98	17928.90
719.17	17962.41
719.36	18042.52
719.55	17865.66
719.75	17834.29
719.94	17837.97
720.13	18031.05
720.32	18048.91
720.51	17999.19
720.71	18048.34
720.90	17865.41
721.09	18013.28
721.28	17868.20
721.47	17975.19
721.67	17877.78
721.86	17907.68
722.05	17903.42
722.24	17818.80
722.43	17997.22
722.63	17871.48
722.82	17984.52
723.01	18086.19
723.20	18014.83
723.39	18062.43
723.58	18165.65
723.78	17919.07
723.97	18249.04
724.16	18032.86
724.35	18158.36
724.54	18079.47
724.73	18224.30
724.93	18062.51
725.12	18255.92
725.31	17840.76
725.50	18030.73
725.69	18047.85
725.88	18035.56
726.08	17837.15
726.27	18185.47
726.46	17904.82
726.65	18311.87
726.84	17977.23
727.03	18092.49
727.23	18215.94
727.42	18199.89
727.61	18263.70
727.80	18239.87
727.99	18324.49
728.18	18171.05
728.37	18024.66
728.56	17925.22
728.76	17801.60
728.95	17988.13
729.14	18002.30
729.33	18043.42
729.52	18099.78
729.71	18105.85
729.90	18164.17
730.09	18111.74
730.29	18283.04
730.48	18148.44
730.67	18354.06
730.86	18135.58
731.05	18294.91
731.24	18164.75
731.43	18227.17
731.62	18043.10
731.81	17926.61
732.01	18136.98
732.20	17870.33
732.39	17961.91
732.58	17980.43
732.77	17723.29
732.96	17897.77
733.15	18068.49
733.34	17945.37
733.53	18076.68
733.72	18139.02
733.92	18071.11
734.11	18099.13
734.30	18118.30
734.49	18254.20
734.68	18143.20
734.87	18022.78
735.06	18017.05
735.25	18101.26
735.44	18004.35
735.63	17956.26
735.82	17960.52
736.01	17861.48
736.20	17841.66
736.40	17937.01
736.59	17972.73
736.78	17952.90
736.97	17774.98
737.16	17915.88
737.35	17888.52
737.54	17939.80
737.73	17806.51
737.92	17962.24
738.11	17923.58
738.30	17943.48
738.49	17839.53
738.68	17783.99
738.87	17858.45
739.06	17699.04
739.25	17748.27
739.44	17662.99
739.63	17614.42
739.82	17435.75
740.01	17622.03
740.20	17459.51
740.39	17490.06
740.59	17460.41
740.78	17485.56
740.97	17445.25
741.16	17421.50
741.35	17550.60
741.54	17539.46
741.73	17565.84
741.92	17411.58
742.11	17426.74
742.30	17332.37
742.49	17229.64
742.68	17304.52
742.87	17337.78
743.06	17251.27
743.25	17369.97
743.44	17322.54
743.63	17428.05
743.82	17254.46
744.01	17241.52
744.20	17160.01
744.39	17212.52
744.58	17106.68
744.77	16970.21
744.96	16873.46
745.15	16969.39
745.34	16893.20
745.53	16987.82
745.72	16852.33
745.91	16910.00
746.10	16837.33
746.29	16988.47
746.48	16953.58
746.67	16883.21
746.86	16842.99
747.04	16703.40
747.23	16604.44
747.42	16736.57
747.61	16527.11
747.80	16730.27
747.99	16487.46
748.18	16682.67
748.37	16581.99
748.56	16420.61
748.75	16461.74
748.94	16377.93
749.13	16404.48
749.32	16219.58
749.51	16326.90
749.70	16249.57
749.89	16099.57
750.08	16161.18
750.27	16031.25
750.46	16127.18
750.65	16244.98
750.84	16054.44
751.02	16142.58
751.21	16097.85
751.40	16123.33
751.59	16118.91
751.78	16074.59
751.97	15947.78
752.16	15870.69
752.35	15961.46
752.54	15831.45
752.73	16030.02
752.92	15976.20
753.11	15934.92
753.30	16007.99
753.49	15922.06
753.67	15836.78
753.86	15703.09
754.05	15788.61
754.24	15673.92
754.43	15628.87
754.62	15633.46
754.81	15458.64
755.00	15501.57
755.19	15424.97
755.38	15253.44
755.56	15313.65
755.75	15402.45
755.94	15264.90
756.13	15306.60
756.32	15279.16
756.51	15201.91
756.70	15244.42
756.89	15157.18
757.08	15111.55
757.26	15079.85
757.45	15191.75
757.64	15062.15
757.83	15180.53
758.02	15031.27
758.21	15005.47
758.40	14986.71
758.59	14972.95
758.77	14859.41
758.96	14926.42
759.15	14861.70
759.34	14755.12
759.53	14783.14
759.72	14783.71
759.91	14645.19
760.09	14697.37
760.28	14698.68
760.47	14525.75
760.66	14593.91
760.85	14499.21
761.04	14536.24
761.23	14537.87
761.41	14463.82
761.60	14472.42
761.79	14435.31
761.98	14380.10
762.17	14525.59
762.36	14333.32
762.54	14367.89
762.73	14369.53
762.92	14274.26
763.11	14352.98
763.30	14363.31
763.49	14234.61
763.67	14139.09
763.86	14117.39
764.05	14157.85
764.24	14145.81
764.43	14179.97
764.61	14024.82
764.80	14005.57
764.99	14046.85
765.18	13793.81
765.37	13866.71
765.55	13898.99
765.74	13798.97
765.93	13722.70
766.12	13867.21
766.31	13816.66
766.49	13844.19
766.68	13832.39
766.87	13781.11
767.06	13781.11
767.25	13737.45
767.43	13718.77
767.62	13603.59
767.81	13659.38
768.00	13489.40
768.19	13452.45
768.37	13470.06
768.56	13405.18
768.75	13356.69
768.94	13403.71
769.12	13266.50
769.31	13300.98
769.50	13259.29
769.69	13284.85
769.88	13202.60
770.06	13358.82
770.25	13242.82
770.44	13177.94
770.63	13316.14
770.81	13203.42
771.00	13273.13
771.19	13190.39
771.38	13235.69
771.56	13242.25
771.75	13094.79
771.94	13182.94
772.13	13168.28
772.31	13084.14
772.50	13257.32
772.69	13105.03
772.88	13150.66
773.06	12967.90
773.25	12973.23
773.44	12843.39
773.62	12836.26
773.81	12840.27
774.00	12766.30
774.19	12803.33
774.37	12725.50
774.56	12778.75
774.75	12619.83
774.94	12684.38
775.12	12555.20
775.31	12643.09
775.50	12669.72
775.68	12589.52
775.87	12631.13
776.06	12567.65
776.25	12649.81
776.43	12502.44
776.62	12581.41
776.81	12433.79
776.99	12523.74
777.18	12436.82
777.37	12266.27
777.55	12371.29
777.74	12372.76
777.93	12336.06
778.12	12297.72
778.30	12288.14
778.49	12336.06
778.68	12422.49
778.86	12373.66
779.05	12460.33
779.24	12404.55
779.42	12313.37
779.61	12209.09
779.80	12229.73
779.98	12207.20
780.17	12200.65
780.36	12061.06
780.54	12183.04
780.73	11970.30
780.92	12109.15
781.10	12035.18
781.29	12014.94
781.48	11979.06
781.66	12014.94
781.85	12068.93
782.04	12050.74
782.22	12131.35
782.41	11948.10
782.60	12001.92
782.78	11953.01
782.97	11996.02
783.16	11858.15
783.34	11904.51
783.53	11954.89
783.71	11911.40
783.90	11854.46
784.09	11867.08
784.27	11859.30
784.46	11854.87
784.65	11918.28
784.83	11871.67
785.02	11829.80
785.20	11914.18
785.39	11770.82
785.58	11837.42
785.76	11802.77
785.95	11801.13
786.14	11814.08
786.32	11777.87
786.51	11719.38
786.69	11774.51
786.88	11687.59
787.07	11673.01
787.25	11647.13
787.44	11708.81
787.62	11681.45
787.81	11870.52
788.00	11913.03
788.18	11916.07
788.37	11937.04
788.55	12126.51
788.74	11986.92
788.93	12114.72
789.11	12179.84
789.30	12209.50
789.48	12089.49
789.67	12071.96
789.86	12012.07
790.04	11962.43
790.23	11772.30
790.41	11757.63
790.60	11835.46
790.78	11818.17
790.97	11692.26
791.16	11764.19
791.34	11803.26
791.53	11639.43
791.71	11833.08
791.90	11689.07
792.08	11750.67
792.27	11750.43
792.46	11699.31
792.64	11754.19
792.83	11707.75
793.01	11752.64
793.20	11728.06
793.38	11693.16
793.57	11756.82
793.75	11708.07
793.94	11757.80
794.12	11909.27
794.31	11803.67
794.50	11899.52
794.68	11958.50
794.87	11914.43
795.05	11995.53
795.24	11931.63
795.42	11856.59
795.61	11962.51
795.79	11923.36
795.98	11797.61
796.16	11900.50
796.35	11912.71
796.53	11854.05
796.72	11928.93
796.90	11893.54
797.09	11847.66
797.27	11859.46
797.46	11858.56
797.64	11892.72
797.83	11887.89
798.01	11911.40
798.20	11973.33
798.38	11848.48
798.57	11953.91
798.75	11888.29
798.94	11828.08
799.12	12089.57
799.31	11994.38
799.49	12084.82
799.68	12026.25
799.86	12066.39
800.05	12006.18
800.23	12098.50
800.42	12060.08
800.60	12220.88
800.79	12036.40
800.97	12206.39
801.16	12226.86
801.34	12111.52
801.53	12035.26
801.71	12089.57
801.90	11978.24
802.08	12094.89
802.27	12014.37
802.45	11906.32
802.64	12005.60
802.82	11978.16
803.00	11932.53
803.19	11957.02
803.37	12037.88
803.56	11909.51
803.74	11930.40
803.93	11920.90
804.11	11889.69
804.30	11852.66
804.48	11894.68
804.67	11922.70
804.85	11919.01
805.03	12000.93
805.22	11898.94
805.40	11883.71
805.59	11980.70
805.77	11891.82
805.96	11831.93
806.14	11756.65
806.32	11854.46
806.51	11912.95
806.69	11838.73
806.88	11880.18
807.06	11965.87
807.25	12021.99
807.43	12082.44
807.61	12138.47
807.80	12018.22
807.98	12097.43
808.17	12018.79
808.35	11982.83
808.53	12082.69
808.72	12024.44
808.90	12016.33
809.09	12066.39
809.27	12080.23
809.45	11866.50
809.64	11970.54
809.82	11846.68
810.01	11877.40
810.19	11904.02
810.37	11868.72
810.56	11871.58
810.74	11953.26
810.93	11856.26
811.11	11939.33
811.29	11846.19
811.48	11969.23
811.66	11916.64
811.84	11864.29
812.03	11807.85
812.21	11874.04
812.40	11881.00
812.58	11925.90
812.76	11786.22
812.95	11915.98
813.13	11756.73
813.31	11847.01
813.50	11904.35
813.68	11926.55
813.86	11972.51
814.05	12019.86
814.23	11920.65
814.42	12051.97
814.60	12045.74
814.78	12071.14
814.97	11999.62
815.15	11940.07
815.33	11951.37
815.52	11854.87
815.70	11845.21
815.88	11844.88
816.07	11735.02
816.25	11806.29
816.43	11896.08
816.62	11813.75
816.80	11809.90
816.98	11810.47
817.17	11827.67
817.35	11796.30
817.53	11822.84
817.72	11846.02
817.90	11775.00
818.08	11800.72
818.26	11849.55
818.45	11745.67
818.63	11782.54
818.81	11861.26
819.00	11752.96
819.18	11925.08
819.36	11914.59
819.55	11970.05
819.73	11906.73
819.91	11978.65
820.09	11879.45
820.28	11937.77
820.46	11814.90
820.64	12069.01
820.83	11872.98
821.01	11957.27
821.19	11958.17
821.38	11969.64
821.56	11962.02
821.74	11973.08
821.92	11858.89
822.11	11893.78
822.29	11708.73
822.47	11734.04
822.65	11738.79
822.84	11833.90
823.02	11699.39
823.20	11883.30
823.39	11739.86
823.57	11780.74
823.75	11839.39
823.93	11740.10
824.12	11804.98
824.30	11747.39
824.48	11783.60
824.66	11843.49
824.85	11681.86
825.03	11828.90
825.21	11899.76
825.39	11932.61
825.58	11945.23
825.76	11951.45
825.94	11914.92
826.12	11966.61
826.31	11893.37
826.49	11982.75
826.67	11929.01
826.85	11977.18
827.03	11971.20
827.22	12040.09
827.40	12002.74
827.58	11992.66
827.76	12006.50
827.95	11979.39
828.13	11990.45
828.31	11965.46
828.49	11966.77
828.67	12006.67
828.86	11979.96
829.04	11979.22
829.22	11928.93
829.40	11906.32
829.58	11904.92
829.77	11851.60
829.95	11825.46
830.13	11871.91
830.31	11822.27
830.49	11880.35
830.68	11856.67
830.86	11827.84
831.04	11826.36
831.22	11858.56
831.40	11863.15
831.59	12003.23
831.77	11853.81
831.95	11953.67
832.13	11844.22
832.31	11971.20
832.50	11894.93
832.68	11908.69
832.86	11978.57
833.04	12083.67
833.22	12024.12
833.40	12103.90
833.59	12054.59
833.77	12185.25
833.95	11861.10
834.13	12160.43
834.31	11977.83
834.49	11955.71
834.67	11948.51
834.86	11948.67
835.04	11951.04
835.22	11970.71
835.40	11979.06
835.58	11944.49
835.76	12002.90
835.95	11953.34
836.13	11925.98
836.31	11908.94
836.49	12021.33
836.67	12079.00
836.85	12041.89
837.03	11999.62
837.21	12080.97
837.40	11997.49
837.58	11952.85
837.76	12035.58
837.94	12035.01
838.12	12173.62
838.30	12101.69
838.48	12107.35
838.66	12070.65
838.85	12023.87
839.03	11953.17
839.21	11986.60
839.39	11964.97
839.57	12087.28
839.75	12063.11
839.93	12075.64
840.11	12142.65
840.29	12099.65
840.47	12142.49
840.66	12093.83
840.84	12090.63
841.02	12018.71
841.20	11977.67
841.38	11972.92
841.56	11941.38
841.74	12102.18
841.92	11954.40
842.10	11951.86
842.28	12007.73
842.46	11925.49
842.65	11933.84
842.83	11995.69
843.01	12031.90
843.19	11960.63
843.37	12025.92
843.55	11997.08
843.73	12039.93
843.91	12123.07
844.09	12074.99
844.27	12204.09
844.45	12086.95
844.63	12108.41
844.81	12052.38
844.99	12042.96
845.17	11983.57
845.35	12082.11
845.54	11980.62
845.72	11967.51
845.90	11958.83
846.08	11958.83
846.26	11851.60
846.44	12035.09
846.62	11907.87
846.80	11972.51
846.98	12006.26
847.16	11967.26
847.34	12040.50
847.52	12040.66
847.70	12004.70
847.88	12054.51
848.06	12101.78
848.24	12152.81
848.42	12173.21
848.60	12099.89
848.78	12233.09
848.96	12225.14
849.14	12182.30
849.32	12285.93
849.50	12196.80
849.68	12281.91
849.86	12219.57
850.04	12192.46
850.22	12205.65
850.40	12096.86
850.58	12169.36
850.76	12284.70
850.94	12002.41
851.12	12132.25
851.30	12110.05
851.48	12206.22
851.66	12197.29
851.84	12203.19
852.02	12192.13
852.20	12285.85
852.38	12180.42
852.56	12227.44
852.74	12208.68
852.92	12146.42
853.10	12107.59
853.28	12158.46
853.46	11946.54
853.64	12085.80
853.82	11946.54
854.00	11945.15
854.18	11933.35
854.36	11944.57
854.54	11967.51
854.72	11899.11
854.90	11919.42
855.07	11997.41
855.25	11971.28
855.43	12000.28
855.61	12012.89
855.79	12006.59
855.97	12043.86
856.15	12019.53
856.33	11961.78
856.51	12067.53
856.69	11916.56
856.87	11969.07
857.05	11916.47
857.23	11866.34
857.41	11840.21
857.59	11871.50
857.77	11897.31
857.94	11823.74
858.12	11888.62
858.30	11929.01
858.48	11881.41
858.66	11905.25
858.84	11979.22
859.02	11912.54
859.20	11905.17
859.38	12063.60
859.56	12027.72
859.74	12020.18
859.92	12055.16
860.09	11998.07
860.27	12020.51
860.45	11897.14
860.63	11886.16
860.81	11924.50
860.99	11840.86
861.17	11801.62
861.35	11695.46
861.53	11659.09
861.70	11603.14
861.88	11794.25
862.06	11839.80
862.24	11716.43
862.42	11678.01
862.60	11778.03
862.78	11763.29
862.96	11837.26
863.14	11694.15
863.31	11705.37
863.49	11737.15
863.67	11677.68
863.85	11727.57
864.03	11769.10
864.21	11758.62
864.39	11735.93
864.56	11649.67
864.74	11759.76
864.92	11754.11
865.10	11749.28
865.28	11752.88
865.46	11829.31
865.64	11638.28
865.81	11748.95
865.99	11576.43
866.17	11723.80
866.35	11636.15
866.53	11653.60
866.71	11688.17
866.88	11700.29
867.06	11593.14
867.24	11719.38
867.42	11678.66
867.60	11723.47
867.78	11608.79
867.95	11804.33
868.13	11617.72
868.31	11768.28
868.49	11723.56
868.67	11690.79
868.84	11635.74
869.02	11734.53
869.20	11503.85
869.38	11578.56
869.56	11482.14
869.73	11412.92
869.91	11515.07
870.09	11485.66
870.27	11487.55
870.45	11534.16
870.62	11517.37
870.80	11605.35
870.98	11594.12
871.16	11574.22
871.34	11503.52
871.51	11530.47
871.69	11425.54
871.87	11424.72
872.05	11380.07
872.23	11371.88
872.40	11369.99
872.58	11472.39
872.76	11412.59
872.94	11411.45
873.11	11404.73
873.29	11298.07
873.47	11307.16
873.65	11251.70
873.83	11233.76
874.00	11216.23
874.18	11313.23
874.36	11310.44
874.54	11367.13
874.71	11303.48
874.89	11159.46
875.07	11234.17
875.25	11138.74
875.42	11139.07
875.60	11061.08
875.78	11117.52
875.96	11046.09
876.13	11111.71
876.31	10932.06
876.49	10961.96
876.66	10909.04
876.84	11146.19
877.02	10975.15
877.20	10983.34
877.37	10972.61
877.55	11007.09
877.73	11012.91
877.91	11020.04
878.08	11078.45
878.26	11077.22
878.44	11032.33
878.61	11070.42
878.79	10981.45
878.97	10969.99
879.15	11012.75
879.32	10979.65
879.50	11008.82
879.68	11082.21
879.85	10928.21
880.03	11029.87
880.21	10923.54
880.38	11085.33
880.56	10917.97
880.74	10980.55
880.92	10811.55
881.09	10895.11
881.27	10853.82
881.45	10867.18
881.62	10883.48
881.80	10892.33
881.98	10886.10
882.15	10971.30
882.33	10928.13
882.51	10973.18
882.68	10854.64
882.86	10965.07
883.04	10767.73
883.21	10779.36
883.39	10797.87
883.57	10677.62
883.74	10718.90
883.92	10745.53
884.10	10714.07
884.27	10692.04
884.45	10688.92
884.63	10804.92
884.80	10736.60
884.98	10848.75
885.16	10778.13
885.33	10781.24
885.51	10816.55
885.69	10842.77
885.86	10811.23
886.04	10876.52
886.21	10739.47
886.39	10869.55
886.57	10731.52
886.74	10906.09
886.92	10881.10
887.10	10862.51
887.27	10825.15
887.45	10869.47
887.62	10842.44
887.80	10830.89
887.98	10923.46
888.15	10853.91
888.33	10742.09
888.51	10819.58
888.68	10717.92
888.86	10706.04
889.03	10606.76
889.21	10673.44
889.39	10663.61
889.56	10633.46
889.74	10640.92
889.91	10603.73
890.09	10601.52
890.27	10601.76
890.44	10647.14
890.62	10630.43
890.79	10646.90
890.97	10691.63
891.14	10656.32
891.32	10752.16
891.50	10739.30
891.67	10820.81
891.85	10818.27
892.02	10794.76
892.20	10901.91
892.38	10832.94
892.55	10801.48
892.73	10858.82
892.90	10713.01
893.08	10756.18
893.25	10726.60
893.43	10807.54
893.60	10690.81
893.78	10773.87
893.96	10750.20
894.13	10794.11
894.31	10850.63
894.48	10828.76
894.66	10859.40
894.83	10915.92
895.01	10932.55
895.18	10993.58
895.36	10902.89
895.53	10932.88
895.71	10871.36
895.89	10883.15
896.06	10785.59
896.24	10784.19
896.41	10761.99
896.59	10748.23
896.76	10567.03
896.94	10661.15
897.11	10687.78
897.29	10681.71
897.46	10624.21
897.64	10656.73
897.81	10601.60
897.99	10527.46
898.16	10617.41
898.34	10604.46
898.51	10584.64
898.69	10596.60
898.86	10692.94
899.04	10695.15
899.21	10660.33
899.39	10713.83
899.56	10645.67
899.74	10744.87
899.91	10615.85
900.09	10541.96
900.26	10547.61
900.44	10484.45
900.61	10490.76
900.79	10601.02
900.96	10511.98
901.14	10514.44
901.31	10447.67
901.49	10407.20
901.66	10404.66
901.84	10390.00
902.01	10279.49
902.19	10338.06
902.36	10274.09
902.54	10290.63
902.71	10319.96
902.88	10365.10
903.06	10246.23
903.23	10406.06
903.41	10348.63
903.58	10320.45
903.76	10270.15
903.93	10360.59
904.11	10376.98
904.28	10308.49
904.45	10297.92
904.63	10259.34
904.80	10152.35
904.98	10221.90
905.15	10110.74
905.33	10137.04
905.50	10050.28
905.68	10078.96
905.85	10014.49
906.02	10007.60
906.20	10044.14
906.37	9947.72
906.55	9906.19
906.72	9957.31
906.90	9860.56
907.07	9864.08
907.24	9886.20
907.42	9841.55
907.59	9869.16
907.77	9872.36
907.94	9858.43
908.11	9892.51
908.29	9890.13
908.46	9886.45
908.64	9888.25
908.81	9969.84
908.98	9889.56
909.16	10006.13
909.33	9926.83
909.51	9873.67
909.68	9836.80
909.85	9868.83
910.03	9810.67
910.20	9789.86
910.37	9768.48
910.55	9756.20
910.72	9722.94
910.90	9690.33
911.07	9656.58
911.24	9549.60
911.42	9635.77
911.59	9478.57
911.76	9488.65
911.94	9445.48
912.11	9378.80
912.29	9352.34
912.46	9288.93
912.63	9351.76
912.81	9216.68
912.98	9346.52
913.15	9224.30
913.33	9303.02
913.50	9282.95
913.67	9234.54
913.85	9205.46
914.02	9181.70
914.19	9161.55
914.37	9147.78
914.54	9145.98
914.71	9145.74
914.89	9127.06
915.06	9121.82
915.23	9058.41
915.41	9005.74
915.58	8946.02
915.75	8902.36
915.93	8896.70
916.10	8856.07
916.27	8837.31
916.45	8836.08
916.62	8730.90
916.79	8793.57
916.97	8702.06
917.14	8710.26
917.31	8699.12
917.49	8729.84
917.66	8738.68
917.83	8697.15
918.00	8701.49
918.18	8679.62
918.35	8649.96
918.52	8681.01
918.70	8617.61
918.87	8626.95
919.04	8611.46
919.21	8572.88
919.39	8497.10
919.56	8528.64
919.73	8463.27
919.91	8450.90
920.08	8394.05
920.25	8339.00
920.42	8358.17
920.60	8320.82
920.77	8287.88
920.94	8362.27
921.11	8257.82
921.29	8312.38
921.46	8261.92
921.63	8351.45
921.81	8261.67
921.98	8272.56
922.15	8276.74
922.32	8298.37
922.50	8211.13
922.67	8206.37
922.84	8163.29
923.01	8155.34
923.19	8118.72
923.36	8115.12
923.53	8010.83
923.70	8077.19
923.87	8004.53
924.05	8006.98
924.22	7928.10
924.39	7994.29
924.56	7879.76
924.74	7935.80
924.91	7938.66
925.08	7918.84
925.25	7916.22
925.43	7924.25
925.60	7859.53
925.77	7897.46
925.94	7805.55
926.11	7788.67
926.29	7774.25
926.46	7745.50
926.63	7777.78
926.80	7812.51
926.97	7745.58
927.15	7798.50
927.32	7663.17
927.49	7685.04
927.66	7663.66
927.83	7640.81
928.01	7580.76
928.18	7576.09
928.35	7513.18
928.52	7575.35
928.69	7508.59
928.87	7528.58
929.04	7469.11
929.21	7482.79
929.38	7383.99
929.55	7409.80
929.72	7351.63
929.90	7386.20
930.07	7322.88
930.24	7319.19
930.41	7311.99
930.58	7276.43
930.75	7272.66
930.93	7244.65
931.10	7209.42
931.27	7187.80
931.44	7152.82
931.61	7147.33
931.78	7168.96
931.95	7151.26
932.13	7083.68
932.30	7192.96
932.47	7118.41
932.64	7121.03
932.81	7134.22
932.98	7088.84
933.15	7090.48
933.33	7041.41
933.50	7084.91
933.67	7020.85
933.84	7010.52
934.01	6998.48
934.18	6955.88
934.35	6946.79
934.52	6893.30
934.70	6917.71
934.87	6850.37
935.04	6857.42
935.21	6814.74
935.38	6844.97
935.55	6818.10
935.72	6844.07
935.89	6802.12
936.06	6807.69
936.24	6720.04
936.41	6803.35
936.58	6781.32
936.75	6764.11
936.92	6736.92
937.09	6734.95
937.26	6725.37
937.43	6736.67
937.60	6750.84
937.77	6741.01
937.94	6721.52
938.12	6730.44
938.29	6668.51
938.46	6679.82
938.63	6641.73
938.80	6671.95
938.97	6564.72
939.14	6600.52
939.31	6559.40
939.48	6557.76
939.65	6494.11
939.82	6484.93
939.99	6479.77
940.16	6496.57
940.33	6489.44
940.50	6493.04
940.67	6481.17
940.85	6480.10
941.02	6492.96
941.19	6503.12
941.36	6467.81
941.53	6512.29
941.70	6496.40
941.87	6447.91
942.04	6435.46
942.21	6446.92
942.38	6454.46
942.55	6379.34
942.72	6409.40
942.89	6376.80
943.06	6299.22
943.23	6286.36
943.40	6267.85
943.57	6295.87
943.74	6278.42
943.91	6257.61
944.08	6271.13
944.25	6276.78
944.42	6208.79
944.59	6223.37
944.76	6222.30
944.93	6190.27
945.10	6189.78
945.27	6142.10
945.44	6110.81
945.61	6109.75
945.78	6061.66
945.95	6077.55
946.12	6042.49
946.29	6092.87
946.46	6047.90
946.63	6026.76
946.80	6015.13
946.97	6026.43
947.14	5987.44
947.31	6064.36
947.48	5991.95
947.65	5990.31
947.82	5976.46
947.99	6011.53
948.16	5918.14
948.33	5975.73
948.50	5914.12
948.67	5950.41
948.84	5918.63
949.01	5896.92
949.18	5907.49
949.35	5936.41
949.52	5902.25
949.68	5909.45
949.85	5865.14
950.02	5891.02
950.19	5832.45
950.36	5816.89
950.53	5807.14
950.70	5802.96
950.87	5770.52
951.04	5828.11
951.21	5744.06
951.38	5786.66
951.55	5755.04
951.72	5748.65
951.89	5728.33
952.06	5763.07
952.23	5725.55
952.39	5740.54
952.56	5663.62
952.73	5697.61
952.90	5654.52
953.07	5723.42
953.24	5672.46
953.41	5675.49
953.58	5648.30
953.75	5687.70
953.92	5649.28
954.09	5661.98
954.25	5606.85
954.42	5635.85
954.59	5606.85
954.76	5617.33
954.93	5559.42
955.10	5555.81
955.27	5517.06
955.44	5535.74
955.61	5519.69
955.77	5538.53
955.94	5476.27
956.11	5512.56
956.28	5482.00
956.45	5465.54
956.62	5474.79
956.79	5456.77
956.96	5448.01
957.12	5465.29
957.29	5448.50
957.46	5432.52
957.63	5434.00
957.80	5407.87
957.97	5429.66
958.14	5472.83
958.30	5419.83
958.47	5437.60
958.64	5424.74
958.81	5458.82
958.98	5406.64
959.15	5402.95
959.32	5430.31
959.48	5392.71
959.65	5341.59
959.82	5360.84
959.99	5317.51
960.16	5332.50
960.33	5311.37
960.49	5259.51
960.66	5258.20
960.83	5287.86
961.00	5259.76
961.17	5245.18
961.33	5233.95
961.50	5263.44
961.67	5226.66
961.84	5245.91
962.01	5195.78
962.18	5262.05
962.34	5217.49
962.51	5238.54
962.68	5190.86
962.85	5225.76
963.02	5189.88
963.18	5213.31
963.35	5189.47
963.52	5199.55
963.69	5212.65
963.86	5214.87
964.02	5182.02
964.19	5177.92
964.36	5156.38
964.53	5140.32
964.69	5080.52
964.86	5144.42
965.03	5088.47
965.20	5120.00
965.37	5061.10
965.53	5056.52
965.70	5039.31
965.87	5058.81
966.04	5047.75
966.20	5038.49
966.37	5050.05
966.54	5029.57
966.71	5040.95
966.87	5015.56
967.04	5015.48
967.21	5023.91
967.38	5011.46
967.54	5027.03
967.71	5001.30
967.88	5009.82
968.05	4992.95
968.21	5008.27
968.38	4971.73
968.55	4991.64
968.72	4975.50
968.88	4964.28
969.05	4969.93
969.22	4964.77
969.39	4943.39
969.55	4973.94
969.72	4900.30
969.89	4916.60
970.05	4952.73
970.22	4934.46
970.39	4909.39
970.56	4926.02
970.72	4895.79
970.89	4917.91
971.06	4876.62
971.22	4881.29
971.39	4870.73
971.56	4900.38
971.73	4837.14
971.89	4871.95
972.06	4843.28
972.23	4868.10
972.39	4801.91
972.56	4863.60
972.73	4803.96
972.89	4831.65
973.06	4830.50
973.23	4807.24
973.39	4792.66
973.56	4824.60
973.73	4783.65
973.89	4806.58
974.06	4784.22
974.23	4793.72
974.39	4765.38
974.56	4748.50
974.73	4738.75
974.89	4734.00
975.06	4734.90
975.23	4757.51
975.39	4728.76
975.56	4719.09
975.73	4722.37
975.89	4717.05
976.06	4726.30
976.23	4700.66
976.39	4699.60
976.56	4705.00
976.73	4702.30
976.89	4674.28
977.06	4674.28
977.23	4678.22
977.39	4671.01
977.56	4667.89
977.72	4613.75
977.89	4664.04
978.06	4628.16
978.22	4626.77
978.39	4639.63
978.56	4645.86
978.72	4629.88
978.89	4635.04
979.05	4637.91
979.22	4623.25
979.39	4613.42
979.55	4612.93
979.72	4575.16
979.88	4591.96
980.05	4523.96
980.22	4568.12
980.38	4540.59
980.55	4518.56
980.71	4496.44
980.88	4540.92
981.05	4517.98
981.21	4520.44
981.38	4500.70
981.54	4527.90
981.71	4504.79
981.88	4505.45
982.04	4491.44
982.21	4506.51
982.37	4492.75
982.54	4550.91
982.70	4472.52
982.87	4503.97
983.04	4461.13
983.20	4535.92
983.37	4473.50
983.53	4508.81
983.70	4483.74
983.86	4462.11
984.03	4423.20
984.20	4459.98
984.36	4416.32
984.53	4433.61
984.69	4407.80
984.86	4393.88
985.02	4423.69
985.19	4440.90
985.35	4403.54
985.52	4437.37
985.68	4418.62
985.85	4414.68
986.02	4406.98
986.18	4409.52
986.35	4398.63
986.51	4415.99
986.68	4389.86
986.84	4395.76
987.01	4373.81
987.17	4398.71
987.34	4354.39
987.50	4354.72
987.67	4360.45
987.83	4382.00
988.00	4359.14
988.16	4379.13
988.33	4366.68
988.49	4368.89
988.66	4336.70
988.82	4354.96
988.99	4321.54
989.15	4323.10
989.32	4277.47
989.48	4301.39
989.65	4256.09
989.81	4289.68
989.98	4262.23
990.14	4248.80
990.31	4267.31
990.47	4258.55
990.64	4256.25
990.80	4234.22
990.97	4225.94
991.13	4261.99
991.30	4249.04
991.46	4239.87
991.63	4221.27
991.79	4256.99
991.95	4225.94
992.12	4243.31
992.28	4253.22
992.45	4249.86
992.61	4243.23
992.78	4260.43
992.94	4237.66
993.11	4256.99
993.27	4236.02
993.44	4234.79
993.60	4223.24
993.76	4211.52
993.93	4203.99
994.09	4226.27
994.26	4195.80
994.42	4209.31
994.59	4187.03
994.75	4234.22
994.91	4174.01
995.08	4184.74
995.24	4171.06
995.41	4167.94
995.57	4154.92
995.74	4136.49
995.90	4148.69
996.06	4134.93
996.23	4139.76
996.39	4125.76
996.56	4122.23
996.72	4130.18
996.88	4138.04
997.05	4128.30
997.21	4120.02
997.38	4125.18
997.54	4085.12
997.70	4101.43
997.87	4094.63
998.03	4111.58
998.20	4061.45
998.36	4088.81
998.52	4056.04
998.69	4112.32
998.85	4063.58
999.02	4097.41
999.18	4039.74
999.34	4087.25
999.51	4092.25
999.67	4090.86
999.83	4077.10
1000.00	4087.91
1000.16	4061.61
1000.33	4065.38
1000.49	4052.36
1000.65	4068.74
1000.82	4068.25
1000.98	4044.74
1001.14	4052.44
1001.31	4060.79
1001.47	4058.66
1001.63	4054.73
1001.80	4022.70
1001.96	4020.00
1002.12	4015.33
1002.29	4040.48
1002.45	4023.03
1002.61	4028.03
1002.78	4005.01
1002.94	4036.71
1003.10	4011.15
1003.27	4036.14
1003.43	3982.73
1003.59	3996.41
1003.76	3988.38
1003.92	3981.66
1004.08	3968.64
1004.25	3998.86
1004.41	3956.43
1004.57	3973.31
1004.74	3955.45
1004.90	3988.54
1005.06	3960.77
1005.23	3958.15
1005.39	3946.44
1005.55	3971.75
1005.71	3945.62
1005.88	3941.52
1006.04	3938.57
1006.20	3946.93
1006.37	3930.05
1006.53	3936.61
1006.69	3924.73
1006.85	3927.02
1007.02	3909.57
1007.18	3918.34
1007.34	3919.73
1007.51	3923.66
1007.67	3913.18
1007.83	3881.97
1007.99	3885.41
1008.16	3898.27
1008.32	3876.07
1008.48	3906.21
1008.64	3858.62
1008.81	3881.23
1008.97	3858.05
1009.13	3888.36
1009.29	3869.43
1009.46	3898.02
1009.62	3868.94
1009.78	3879.34
1009.95	3879.34
1010.11	3858.21
1010.27	3865.99
1010.43	3865.34
1010.59	3887.04
1010.76	3866.24
1010.92	3843.38
1011.08	3864.60
1011.24	3838.30
1011.41	3876.64
1011.57	3841.58
1011.73	3855.10
1011.89	3838.22
1012.06	3853.13
1012.22	3804.96
1012.38	3826.67
1012.54	3820.69
1012.70	3802.75
1012.87	3823.31
1013.03	3836.75
1013.19	3813.07
1013.35	3822.57
1013.51	3770.39
1013.68	3805.37
1013.84	3791.61
1014.00	3797.18
1014.16	3766.46
1014.32	3779.32
1014.49	3776.29
1014.65	3814.46
1014.81	3762.28
1014.97	3786.78
1015.13	3776.21
1015.30	3787.19
1015.46	3761.95
1015.62	3761.30
1015.78	3767.28
1015.94	3759.66
1016.10	3767.12
1016.27	3753.60
1016.43	3743.11
1016.59	3757.29
1016.75	3744.34
1016.91	3773.42
1017.07	3738.44
1017.24	3740.90
1017.40	3721.73
1017.56	3730.99
1017.72	3726.40
1017.88	3731.07
1018.04	3728.86
1018.21	3760.40
1018.37	3725.17
1018.53	3732.55
1018.69	3736.72
1018.85	3736.64
1019.01	3708.38
1019.17	3720.91
1019.34	3709.36
1019.50	3706.66
1019.66	3694.78
1019.82	3706.25
1019.98	3679.79
1020.14	3708.13
1020.30	3684.79
1020.46	3693.88
1020.63	3679.13
1020.79	3668.16
1020.95	3686.92
1021.11	3671.84
1021.27	3657.26
1021.43	3660.62
1021.59	3693.88
1021.75	3665.29
1021.91	3647.51
1022.07	3666.77
1022.24	3672.34
1022.40	3655.38
1022.56	3650.71
1022.72	3684.30
1022.88	3644.97
1023.04	3671.35
1023.20	3645.47
1023.36	3628.51
1023.52	3661.60
1023.68	3662.34
1023.84	3625.89
1024.01	3659.31
1024.17	3645.88
1024.33	3649.07
1024.49	3632.03
1024.65	3626.95
1024.81	3624.82
1024.97	3641.53
1025.13	3637.27
1025.29	3640.14
1025.45	3615.89
1025.61	3647.43
1025.77	3617.86
1025.93	3643.75
1026.09	3609.18
1026.25	3650.95
1026.41	3624.17
1026.57	3621.46
1026.73	3633.92
1026.90	3627.12
1027.06	3615.98
1027.22	3625.89
1027.38	3605.08
1027.54	3613.11
1027.70	3595.66
1027.86	3599.92
1028.02	3600.25
1028.18	3591.89
1028.34	3593.78
1028.50	3603.61
1028.66	3587.06
1028.82	3592.06
1028.98	3579.11
1029.14	3560.35
1029.30	3567.23
1029.46	3570.67
1029.62	3584.85
1029.78	3557.57
1029.94	3567.48
1030.10	3559.04
1030.26	3542.66
1030.42	3572.31
1030.58	3558.14
1030.74	3566.74
1030.90	3554.21
1031.06	3533.07
1031.22	3530.29
1031.38	3550.93
1031.54	3540.28
1031.70	3544.95
1031.86	3536.35
1032.02	3540.45
1032.18	3514.40
1032.34	3527.18
1032.50	3518.16
1032.66	3547.74
1032.82	3517.18
1032.98	3548.64
1033.14	3530.62
1033.30	3535.94
1033.45	3497.03
1033.61	3536.51
1033.77	3520.38
1033.93	3524.55
1034.09	3517.67
1034.25	3524.14
1034.41	3503.58
1034.57	3516.61
1034.73	3499.32
1034.89	3537.91
1035.05	3504.98
1035.21	3500.80
1035.37	3507.11
1035.53	3503.99
1035.69	3486.38
1035.85	3517.75
1036.01	3487.28
1036.16	3492.93
1036.32	3494.65
1036.48	3480.56
1036.64	3485.23
1036.80	3499.49
1036.96	3462.87
1037.12	3474.67
1037.28	3480.73
1037.44	3478.11
1037.60	3468.11
1037.76	3453.69
1037.91	3470.08
1038.07	3465.41
1038.23	3457.87
1038.39	3454.43
1038.55	3447.80
1038.71	3463.52
1038.87	3444.68
1039.03	3488.26
1039.19	3441.57
1039.35	3449.93
1039.50	3442.23
1039.66	3450.42
1039.82	3448.12
1039.98	3468.44
1040.14	3447.14
1040.30	3461.80
1040.46	3428.96
1040.62	3446.57
1040.77	3453.12
1040.93	3471.72
1041.09	3451.07
1041.25	3454.51
1041.41	3451.89
1041.57	3441.82
1041.73	3441.82
1041.88	3441.82

