SpectraSuite Data File
++++++++++++++++++++++++++++++++++++
Date: Tue Sep 20 11:48:08 EDT 2022
User: Laboratoire
Dark Spectrum Present: No
Reference Spectrum Present: No
Number of Sampled Component Spectra: 1
Spectrometers: FLMT00174
Integration Time (usec): 15000 (FLMT00174)
Spectra Averaged: 25 (FLMT00174)
Boxcar Smoothing: 0 (FLMT00174)
Correct for Electrical Dark: No (FLMT00174)
Strobe/Lamp Enabled: No (FLMT00174)
Correct for Detector Non-linearity: No (FLMT00174)
Correct for Stray Light: No (FLMT00174)
Number of Pixels in Processed Spectrum: 3648
>>>>>Begin Processed Spectral Data<<<<<
345.74	3146.25
345.96	3146.25
346.18	3146.25
346.39	3153.22
346.61	3197.45
346.83	3224.40
347.05	3204.50
347.27	3188.69
347.49	3205.48
347.71	3210.07
347.93	3213.02
348.15	3226.94
348.36	3210.81
348.58	3218.92
348.80	3223.99
349.02	3206.63
349.24	3221.95
349.46	3311.32
349.68	3311.98
349.90	3327.70
350.11	3302.64
350.33	3322.87
350.55	3305.09
350.77	3323.53
350.99	3297.07
351.21	3334.91
351.43	3305.42
351.65	3330.16
351.86	3329.67
352.08	3339.75
352.30	3302.06
352.52	3315.58
352.74	3314.19
352.96	3309.52
353.18	3316.81
353.39	3316.89
353.61	3309.19
353.83	3319.59
354.05	3331.39
354.27	3330.65
354.49	3326.39
354.70	3327.29
354.92	3323.28
355.14	3301.08
355.36	3316.07
355.58	3325.98
355.80	3333.85
356.02	3317.55
356.23	3320.25
356.45	3315.09
356.67	3331.80
356.89	3351.05
357.11	3312.71
357.33	3338.84
357.54	3319.84
357.76	3306.98
357.98	3316.15
358.20	3322.38
358.42	3315.42
358.63	3316.07
358.85	3324.67
359.07	3337.37
359.29	3306.32
359.51	3310.01
359.73	3310.17
359.94	3330.73
360.16	3305.67
360.38	3327.46
360.60	3316.73
360.82	3322.13
361.03	3310.17
361.25	3298.46
361.47	3328.19
361.69	3330.16
361.91	3325.98
362.12	3340.32
362.34	3317.14
362.56	3330.16
362.78	3322.05
363.00	3328.93
363.21	3317.14
363.43	3338.27
363.65	3313.94
363.87	3334.58
364.09	3334.01
364.30	3299.11
364.52	3311.48
364.74	3345.23
364.96	3316.32
365.17	3325.66
365.39	3312.38
365.61	3334.34
365.83	3308.62
366.05	3336.30
366.26	3320.17
366.48	3317.22
366.70	3321.81
366.92	3320.00
367.13	3305.50
367.35	3334.34
367.57	3321.72
367.79	3335.08
368.01	3323.36
368.22	3350.80
368.44	3321.23
368.66	3346.46
368.88	3326.72
369.09	3350.56
369.31	3334.09
369.53	3327.13
369.75	3346.54
369.96	3329.42
370.18	3328.11
370.40	3349.49
370.62	3336.55
370.83	3319.18
371.05	3358.75
371.27	3359.41
371.49	3323.36
371.70	3345.40
371.92	3331.39
372.14	3357.60
372.36	3331.55
372.57	3363.50
372.79	3368.83
373.01	3329.59
373.22	3319.76
373.44	3324.26
373.66	3333.27
373.88	3348.02
374.09	3328.60
374.31	3329.75
374.53	3319.92
374.75	3361.04
374.96	3349.33
375.18	3374.72
375.40	3343.19
375.61	3361.54
375.83	3330.08
376.05	3344.01
376.27	3344.33
376.48	3341.06
376.70	3332.13
376.92	3335.90
377.13	3336.47
377.35	3341.47
377.57	3338.11
377.79	3322.46
378.00	3363.91
378.22	3362.93
378.44	3340.40
378.65	3353.84
378.87	3346.14
379.09	3365.14
379.30	3354.00
379.52	3343.10
379.74	3346.30
379.96	3345.32
380.17	3348.18
380.39	3347.28
380.61	3336.80
380.82	3358.34
381.04	3363.58
381.26	3361.78
381.47	3359.41
381.69	3385.62
381.91	3366.70
382.12	3374.56
382.34	3384.31
382.56	3371.86
382.77	3372.76
382.99	3387.75
383.21	3355.47
383.42	3377.26
383.64	3377.10
383.86	3383.57
384.07	3390.78
384.29	3383.00
384.51	3386.85
384.72	3379.64
384.94	3396.02
385.16	3391.44
385.37	3389.47
385.59	3405.69
385.81	3404.46
386.02	3398.07
386.24	3405.44
386.46	3399.22
386.67	3398.65
386.89	3418.06
387.11	3430.59
387.32	3421.01
387.54	3430.59
387.76	3430.27
387.97	3437.15
388.19	3435.75
388.40	3424.70
388.62	3438.05
388.84	3424.61
389.05	3445.50
389.27	3462.87
389.49	3460.41
389.70	3445.58
389.92	3448.12
390.14	3440.26
390.35	3447.30
390.57	3438.70
390.78	3473.11
391.00	3437.72
391.22	3457.46
391.43	3438.21
391.65	3471.23
391.86	3475.57
392.08	3466.06
392.30	3458.36
392.51	3459.59
392.73	3477.21
392.95	3460.82
393.16	3445.34
393.38	3470.00
393.59	3468.77
393.81	3475.16
394.03	3469.34
394.24	3473.93
394.46	3470.00
394.67	3480.56
394.89	3465.00
395.11	3493.92
395.32	3495.23
395.54	3502.44
395.75	3486.05
395.97	3489.66
396.19	3485.81
396.40	3496.37
396.62	3509.48
396.83	3489.74
397.05	3499.65
397.26	3513.09
397.48	3507.43
397.70	3519.56
397.91	3527.42
398.13	3516.44
398.34	3550.60
398.56	3558.88
398.78	3534.63
398.99	3559.45
399.21	3538.15
399.42	3559.29
399.64	3539.79
399.85	3590.17
400.07	3527.18
400.29	3583.86
400.50	3556.91
400.72	3600.00
400.93	3588.94
401.15	3591.65
401.36	3610.49
401.58	3630.48
401.79	3626.54
402.01	3614.42
402.23	3631.62
402.44	3656.28
402.66	3664.31
402.87	3669.80
403.09	3662.18
403.30	3673.40
403.52	3671.76
403.73	3662.26
403.95	3704.12
404.16	3710.18
404.38	3712.07
404.60	3728.04
404.81	3736.48
405.03	3749.75
405.24	3765.31
405.46	3764.25
405.67	3784.65
405.89	3806.93
406.10	3783.83
406.32	3808.65
406.53	3843.96
406.75	3853.13
406.96	3835.93
407.18	3826.67
407.39	3852.56
407.61	3880.98
407.82	3867.22
408.04	3899.41
408.25	3894.25
408.47	3908.92
408.68	3909.08
408.90	3918.75
409.12	3930.79
409.33	3941.44
409.55	3916.13
409.76	3951.60
409.98	3939.39
410.19	3958.72
410.41	3960.12
410.62	3969.45
410.84	3943.98
411.05	3984.77
411.27	3990.92
411.48	3974.04
411.70	3986.25
411.91	3988.05
412.12	3985.92
412.34	3953.73
412.55	3976.09
412.77	3979.29
412.98	3992.88
413.20	3981.17
413.41	3986.66
413.63	3996.57
413.84	4007.87
414.06	4005.42
414.27	3998.78
414.49	3988.30
414.70	4011.15
414.92	4009.76
415.13	3990.75
415.35	4008.69
415.56	4017.46
415.78	3999.19
415.99	4006.81
416.21	4014.26
416.42	4042.20
416.63	4045.89
416.85	4024.59
417.06	4025.90
417.28	4025.32
417.49	4053.91
417.71	4046.46
417.92	4024.83
418.14	4036.46
418.35	4056.04
418.57	4048.10
418.78	4071.77
418.99	4070.62
419.21	4076.03
419.42	4072.02
419.64	4089.22
419.85	4087.75
420.07	4130.02
420.28	4091.02
420.50	4109.62
420.71	4130.26
420.92	4111.26
421.14	4153.03
421.35	4161.88
421.57	4124.45
421.78	4164.67
422.00	4196.78
422.21	4174.74
422.42	4191.37
422.64	4187.69
422.85	4255.60
423.07	4265.76
423.28	4249.29
423.50	4281.97
423.71	4292.05
423.92	4353.74
424.14	4299.51
424.35	4342.27
424.57	4365.37
424.78	4373.97
424.99	4385.93
425.21	4412.55
425.42	4445.65
425.64	4434.84
425.85	4474.24
426.06	4456.71
426.28	4496.60
426.49	4557.14
426.71	4545.18
426.92	4558.12
427.13	4601.38
427.35	4656.67
427.56	4680.26
427.78	4665.60
427.99	4685.10
428.20	4751.78
428.42	4764.15
428.63	4802.32
428.84	4761.77
429.06	4828.54
429.27	4861.39
429.49	4858.19
429.70	4946.01
429.91	4959.20
430.13	4979.27
430.34	4985.66
430.56	5022.85
430.77	5075.93
430.98	5042.59
431.20	5116.15
431.41	5154.16
431.62	5187.01
431.84	5178.25
432.05	5214.54
432.26	5245.34
432.48	5245.42
432.69	5332.50
432.91	5305.30
433.12	5371.33
433.33	5372.64
433.55	5474.63
433.76	5492.00
433.97	5442.27
434.19	5481.27
434.40	5544.92
434.61	5536.56
434.83	5572.77
435.04	5541.64
435.25	5624.30
435.47	5636.34
435.68	5607.91
435.89	5709.49
436.11	5670.83
436.32	5701.46
436.53	5700.40
436.75	5702.12
436.96	5712.85
437.17	5686.96
437.39	5710.56
437.60	5734.80
437.81	5765.36
438.03	5762.82
438.24	5788.95
438.45	5845.31
438.67	5791.16
438.88	5820.90
439.09	5863.58
439.31	5842.69
439.52	5857.93
439.73	5817.54
439.94	5776.83
440.16	5852.93
440.37	5802.88
440.58	5849.00
440.80	5825.98
441.01	5811.15
441.22	5930.18
441.44	5898.15
441.65	5866.61
441.86	5856.21
442.08	5866.28
442.29	5862.92
442.50	5875.13
442.71	5848.02
442.93	5883.16
443.14	5861.94
443.35	5928.46
443.57	5838.51
443.78	5900.69
443.99	5907.57
444.20	5856.04
444.42	5900.44
444.63	5882.91
444.84	5926.90
445.06	5937.88
445.27	5874.97
445.48	5890.20
445.69	5909.21
445.91	5912.16
446.12	5901.51
446.33	5918.88
446.54	5981.63
446.76	5911.99
446.97	5957.21
447.18	5921.01
447.39	5962.95
447.61	5972.61
447.82	6014.39
448.03	5976.14
448.25	6041.59
448.46	6065.67
448.67	6081.73
448.88	5995.31
449.10	6105.49
449.31	6103.68
449.52	6091.07
449.73	6126.95
449.95	6214.27
450.16	6139.48
450.37	6229.92
450.58	6327.08
450.79	6207.48
451.01	6265.31
451.22	6254.50
451.43	6265.64
451.64	6359.84
451.86	6345.75
452.07	6375.57
452.28	6414.57
452.49	6519.26
452.71	6470.19
452.92	6448.15
453.13	6558.09
453.34	6556.53
453.55	6653.20
453.77	6659.99
453.98	6697.35
454.19	6643.20
454.40	6750.92
454.62	6801.06
454.83	6778.53
455.04	6933.85
455.25	6857.01
455.46	7073.03
455.68	7021.09
455.89	6985.38
456.10	7080.40
456.31	7144.13
456.52	7185.75
456.74	7182.64
456.95	7358.27
457.16	7323.37
457.37	7418.15
457.58	7434.95
457.80	7457.06
458.01	7474.27
458.22	7795.14
458.43	7678.74
458.64	7792.19
458.86	7686.60
459.07	7837.66
459.28	7825.70
459.49	8018.53
459.70	8203.26
459.91	8173.77
460.13	8205.72
460.34	8284.20
460.55	8261.26
460.76	8450.08
460.97	8483.83
461.19	8537.41
461.40	8792.18
461.61	8708.45
461.82	8787.75
462.03	8884.99
462.24	8935.04
462.46	8958.96
462.67	9000.00
462.88	9196.12
463.09	9200.95
463.30	9383.87
463.51	9324.57
463.72	9547.14
463.94	9618.82
464.15	9661.66
464.36	9573.43
464.57	9936.99
464.78	9900.45
464.99	9988.84
465.20	9984.58
465.42	10169.64
465.63	10188.48
465.84	10228.78
466.05	10375.83
466.26	10486.58
466.47	10575.55
466.68	10577.59
466.90	10742.82
467.11	10721.69
467.32	10860.13
467.53	11056.49
467.74	10849.97
467.95	11014.30
468.16	11200.10
468.37	11279.39
468.59	11320.19
468.80	11489.51
469.01	11341.08
469.22	11537.11
469.43	11782.29
469.64	11569.30
469.85	11747.39
470.06	11856.43
470.28	11948.42
470.49	11768.69
470.70	11950.55
470.91	12194.83
471.12	12055.08
471.33	12340.65
471.54	12198.52
471.75	12188.85
471.96	12448.13
472.17	12435.02
472.39	12663.16
472.60	12424.13
472.81	12736.15
473.02	12613.03
473.23	12812.09
473.44	12875.74
473.65	12730.26
473.86	12878.94
474.07	12881.72
474.28	12957.25
474.49	13207.68
474.71	13068.58
474.92	13202.03
475.13	13161.56
475.34	13110.52
475.55	13184.82
475.76	13217.59
475.97	13453.84
476.18	13393.96
476.39	13514.71
476.60	13595.07
476.81	13548.95
477.02	13682.89
477.23	13691.82
477.44	13615.88
477.65	13732.20
477.87	13898.34
478.08	13861.96
478.29	13905.30
478.50	14127.38
478.71	14004.75
478.92	14131.72
479.13	14101.41
479.34	14146.30
479.55	14208.15
479.76	14094.20
479.97	14244.03
480.18	14471.60
480.39	14252.88
480.60	14533.62
480.81	14503.63
481.02	14587.35
481.23	14551.88
481.44	14750.13
481.65	14832.62
481.86	14982.53
482.07	14669.44
482.28	15192.49
482.49	14984.82
482.71	15009.15
482.92	15159.97
483.13	15341.42
483.34	15213.38
483.55	15310.12
483.76	15292.18
483.97	15507.06
484.18	15480.43
484.39	15600.44
484.60	15513.04
484.81	15860.94
485.02	15721.76
485.23	15930.66
485.44	15966.54
485.65	16151.18
485.86	16024.54
486.07	16270.78
486.28	16252.19
486.49	16419.71
486.70	16584.70
486.91	16680.87
487.12	16579.86
487.33	16613.70
487.54	16891.56
487.75	16982.49
487.96	16996.91
488.17	16998.55
488.38	17255.28
488.59	17291.66
488.80	17397.00
489.01	17433.21
489.22	17746.80
489.43	17754.50
489.64	17611.96
489.85	18110.92
490.06	17826.09
490.26	18173.67
490.47	18103.72
490.68	18442.04
490.89	18674.44
491.10	18472.84
491.31	18768.57
491.52	19024.73
491.73	18999.01
491.94	18987.78
492.15	19220.10
492.36	19388.45
492.57	19450.79
492.78	19545.81
492.99	19669.35
493.20	19943.78
493.41	20032.57
493.62	20176.75
493.83	20231.15
494.04	20438.24
494.25	20719.87
494.46	20783.36
494.67	20765.26
494.88	21101.04
495.08	21189.92
495.29	21382.51
495.50	21657.60
495.71	21628.19
495.92	21927.52
496.13	22102.83
496.34	22082.10
496.55	22260.76
496.76	22715.66
496.97	22513.24
497.18	22929.06
497.39	22944.62
497.60	23400.66
497.81	23147.29
498.02	23591.94
498.22	23418.11
498.43	23988.60
498.64	24141.46
498.85	24261.71
499.06	24430.38
499.27	24894.94
499.48	24462.00
499.69	25051.33
499.90	25182.23
500.11	25486.40
500.32	25865.52
500.52	25719.62
500.73	26327.46
500.94	26460.99
501.15	26610.00
501.36	26772.93
501.57	26676.92
501.78	27057.11
501.99	27463.18
502.20	27578.68
502.41	27733.43
502.61	27857.78
502.82	28246.81
503.03	28187.42
503.24	28753.15
503.45	28576.86
503.66	29124.16
503.87	29146.04
504.08	29573.41
504.28	29443.40
504.49	29707.92
504.70	29956.46
504.91	30353.93
505.12	30131.19
505.33	30813.33
505.54	30907.70
505.75	31042.54
505.95	31419.28
506.16	31424.52
506.37	31394.54
506.58	32016.63
506.79	31638.50
507.00	32249.45
507.21	32143.36
507.41	32197.18
507.62	32454.24
507.83	33050.45
508.04	32732.19
508.25	33266.30
508.46	33075.51
508.67	33644.93
508.87	33402.12
509.08	33963.92
509.29	33909.94
509.50	34097.61
509.71	34302.41
509.92	34547.10
510.12	34378.84
510.33	34664.00
510.54	34601.25
510.75	34844.55
510.96	35044.27
511.17	35332.54
511.37	35233.91
511.58	35414.62
511.79	35256.60
512.00	35259.96
512.21	35749.01
512.42	35726.16
512.62	35809.23
512.83	36098.23
513.04	35900.24
513.25	36258.06
513.46	35532.42
513.66	36535.19
513.87	36126.41
514.08	36440.41
514.29	36187.77
514.50	36170.90
514.71	36464.08
514.91	36193.34
515.12	36270.59
515.33	36506.52
515.54	36326.54
515.75	36659.71
515.95	36368.89
516.16	36244.21
516.37	36648.56
516.58	36669.29
516.78	36396.34
516.99	36639.31
517.20	36482.43
517.41	36459.82
517.62	36538.14
517.82	36377.91
518.03	36903.33
518.24	37117.30
518.45	36478.67
518.66	36712.54
518.86	36429.19
519.07	36763.74
519.28	36004.68
519.49	36608.83
519.69	36511.92
519.90	36490.71
520.11	36405.51
520.32	36218.25
520.52	36464.49
520.73	36077.43
520.94	36415.51
521.15	36318.92
521.36	35845.76
521.56	36487.35
521.77	35820.53
521.98	36250.93
522.19	35780.39
522.39	36070.63
522.60	35813.57
522.81	35854.36
523.02	35552.08
523.22	35774.16
523.43	35855.18
523.64	35593.86
523.84	35595.42
524.05	35843.63
524.26	35741.48
524.47	35456.48
524.67	35553.56
524.88	35534.96
525.09	35705.27
525.30	35283.80
525.50	35269.95
525.71	35255.29
525.92	35204.42
526.13	35419.95
526.33	35181.65
526.54	34923.11
526.75	35182.96
526.95	35376.86
527.16	34712.01
527.37	35207.78
527.58	35279.78
527.78	35113.57
527.99	35253.08
528.20	35299.28
528.40	35026.16
528.61	34792.45
528.82	35156.41
529.03	35018.14
529.23	34914.02
529.44	35068.52
529.65	34969.23
529.85	35049.84
530.06	34876.83
530.27	34944.33
530.47	34460.68
530.68	35191.39
530.89	34502.62
531.09	34988.64
531.30	34894.52
531.51	34591.26
531.72	34993.81
531.92	34896.65
532.13	35049.84
532.34	34881.33
532.54	34888.62
532.75	35008.96
532.96	34864.21
533.16	35048.86
533.37	35254.23
533.58	34987.17
533.78	35197.21
533.99	35330.82
534.20	34905.83
534.40	35236.86
534.61	35341.22
534.82	35375.96
535.02	35345.65
535.23	35464.92
535.44	35599.92
535.64	35470.25
535.85	35603.53
536.06	35604.18
536.26	35527.59
536.47	35691.34
536.68	36185.64
536.88	35615.57
537.09	36191.05
537.29	35754.34
537.50	36492.59
537.71	36105.53
537.91	36277.72
538.12	36413.95
538.33	36158.53
538.53	36388.55
538.74	36502.75
538.95	36577.21
539.15	36542.73
539.36	36814.53
539.56	37231.25
539.77	36795.44
539.98	36940.28
540.18	37225.60
540.39	37031.37
540.60	37424.91
540.80	37661.98
541.01	37666.24
541.21	37707.20
541.42	37923.96
541.63	37857.44
541.83	38216.00
542.04	38224.76
542.25	38397.78
542.45	38569.72
542.66	38628.79
542.86	38893.79
543.07	38098.03
543.28	39031.34
543.48	38988.98
543.69	39283.65
543.89	39153.56
544.10	39792.85
544.31	39648.43
544.51	39585.84
544.72	39967.58
544.92	39941.94
545.13	40408.72
545.33	40400.61
545.54	40354.98
545.75	40760.31
545.95	40714.60
546.16	40895.15
546.36	41534.53
546.57	40908.26
546.78	40555.35
546.98	41189.73
547.19	40569.61
547.39	41646.10
547.60	41947.48
547.80	42574.49
548.01	42750.61
548.22	42561.62
548.42	42777.15
548.63	43182.08
548.83	43152.26
549.04	43586.59
549.24	43566.44
549.45	43875.93
549.65	44343.52
549.86	43823.42
550.07	44214.50
550.27	44832.17
550.48	44892.05
550.68	44786.62
550.89	44873.53
551.09	45363.49
551.30	45225.21
551.50	45761.86
551.71	45786.03
551.91	45903.42
552.12	46291.79
552.33	46786.42
552.53	46472.92
552.74	47203.30
552.94	47339.37
553.15	47244.26
553.35	47663.61
553.56	47418.91
553.76	48114.49
553.97	47740.94
554.17	48214.92
554.38	49009.45
554.58	48551.52
554.79	49262.25
554.99	48870.02
555.20	49159.77
555.40	49895.65
555.61	49656.61
555.81	49516.94
556.02	50601.87
556.22	50552.55
556.43	50373.56
556.63	50610.63
556.84	50642.83
557.04	51458.25
557.25	50874.74
557.45	51507.56
557.66	51693.02
557.86	51585.63
558.07	52329.78
558.27	52096.80
558.48	52339.86
558.68	52581.11
558.89	52859.63
559.09	53095.39
559.30	52941.55
559.50	53307.97
559.71	52934.34
559.91	53893.69
560.12	53679.06
560.32	53867.97
560.53	54249.95
560.73	54067.60
560.94	54616.95
561.14	54257.00
561.35	54976.82
561.55	54731.47
561.76	55065.46
561.96	54546.26
562.17	55156.22
562.37	55489.63
562.57	55187.76
562.78	55319.49
562.98	55719.74
563.19	55815.67
563.39	55981.47
563.60	56161.94
563.80	55681.81
564.01	56542.86
564.21	56207.73
564.42	56278.75
564.62	56480.19
564.82	56863.49
565.03	56360.02
565.23	56458.65
565.44	56716.36
565.64	56529.34
565.85	56866.44
566.05	56699.24
566.25	57108.59
566.46	56732.99
566.66	57045.19
566.87	57041.99
567.07	56979.98
567.28	57177.24
567.48	57447.41
567.68	56714.56
567.89	57776.23
568.09	57200.59
568.30	57169.78
568.50	57642.70
568.71	57417.10
568.91	57751.82
569.11	57253.42
569.32	57308.15
569.52	57508.11
569.73	56827.61
569.93	57448.96
570.13	57199.19
570.34	57022.17
570.54	57623.21
570.75	57188.05
570.95	57180.19
571.15	56929.19
571.36	57456.91
571.56	56844.16
571.77	56643.70
571.97	56229.44
572.17	56894.70
572.38	56729.06
572.58	56910.02
572.79	56639.52
572.99	56666.48
573.19	56512.55
573.40	56306.44
573.60	56446.77
573.81	56224.77
574.01	56358.71
574.21	56046.84
574.42	56096.57
574.62	55723.84
574.82	56065.44
575.03	55647.49
575.23	56118.44
575.43	55617.67
575.64	55428.36
575.84	55819.76
576.05	55105.76
576.25	55254.61
576.45	54957.65
576.66	55515.27
576.86	54821.67
577.06	55207.83
577.27	54996.73
577.47	54823.47
577.67	54656.35
577.88	54073.26
578.08	54716.48
578.28	54625.47
578.49	54262.16
578.69	54230.54
578.89	53919.49
579.10	53900.41
579.30	54341.87
579.50	53729.69
579.71	53227.94
579.91	53613.36
580.11	53285.61
580.32	53223.76
580.52	52973.82
580.72	53520.88
580.93	52764.69
581.13	52738.06
581.33	53111.78
581.54	52512.87
581.74	52349.52
581.94	52515.65
582.15	52667.53
582.35	52108.27
582.55	52150.13
582.76	51752.25
582.96	52159.96
583.16	51649.61
583.37	51709.90
583.57	51272.13
583.77	51776.17
583.97	50725.32
584.18	51757.99
584.38	51389.02
584.58	51033.66
584.79	51261.72
584.99	51003.84
585.19	50855.16
585.40	50695.25
585.60	50839.10
585.80	50245.68
586.00	50539.77
586.21	50422.06
586.41	50354.23
586.61	50518.15
586.82	50283.61
587.02	50029.26
587.22	50291.80
587.42	49600.41
587.63	50113.63
587.83	49303.70
588.03	49679.79
588.23	49209.49
588.44	49533.40
588.64	49069.25
588.84	49303.29
589.05	49443.54
589.25	49369.97
589.45	49287.89
589.65	48947.68
589.86	49156.57
590.06	49035.50
590.26	48724.45
590.46	49013.63
590.67	48280.86
590.87	48939.82
591.07	49111.27
591.27	48344.84
591.48	48675.38
591.68	48063.12
591.88	49011.50
592.08	48082.37
592.29	48426.11
592.49	48234.33
592.69	48433.89
592.89	48030.77
593.10	48039.37
593.30	47819.17
593.50	48343.45
593.70	47321.43
593.90	48193.13
594.11	47893.88
594.31	48008.89
594.51	48206.81
594.71	48224.18
594.92	48196.65
595.12	47954.09
595.32	47877.17
595.52	48091.06
595.72	47303.24
595.93	48025.85
596.13	47654.84
596.33	47354.61
596.53	47791.48
596.73	47672.70
596.94	47523.28
597.14	48034.78
597.34	47618.55
597.54	47886.10
597.74	47478.31
597.95	47742.17
598.15	47652.79
598.35	47790.33
598.55	47864.96
598.75	47621.99
598.96	48128.00
599.16	47628.22
599.36	47868.73
599.56	47730.86
599.76	47659.67
599.97	48180.10
600.17	47842.11
600.37	48013.64
600.57	47427.27
600.77	48292.50
600.97	47940.25
601.18	48465.75
601.38	48025.93
601.58	48303.55
601.78	48157.17
601.98	47928.28
602.18	48289.06
602.39	48733.71
602.59	48481.81
602.79	48435.53
602.99	48344.60
603.19	48409.07
603.39	48316.83
603.60	48316.50
603.80	48433.81
604.00	48432.00
604.20	48594.20
604.40	48773.19
604.60	48605.83
604.80	48724.37
605.01	48912.54
605.21	48824.56
605.41	48787.37
605.61	48523.67
605.81	48926.46
606.01	49243.24
606.21	48832.83
606.42	49339.01
606.62	49034.68
606.82	49641.12
607.02	49265.53
607.22	49576.90
607.42	49865.75
607.62	49237.92
607.82	49677.91
608.03	49754.42
608.23	49658.49
608.43	49484.82
608.63	50040.40
608.83	49958.56
609.03	50064.64
609.23	50311.47
609.43	50459.08
609.63	50341.20
609.84	50300.16
610.04	50913.08
610.24	50916.76
610.44	51021.86
610.64	50929.21
610.84	51171.86
611.04	51642.07
611.24	51387.55
611.44	50804.12
611.64	51479.95
611.85	51529.68
612.05	51638.71
612.25	51804.02
612.45	51553.19
612.65	51967.78
612.85	52154.96
613.05	51983.26
613.25	52535.89
613.45	52472.07
613.65	52486.24
613.85	52263.18
614.05	52816.79
614.25	53063.36
614.46	53019.78
614.66	52840.38
614.86	52769.44
615.06	53147.98
615.26	53525.88
615.46	52956.79
615.66	53728.30
615.86	53788.10
616.06	53457.96
616.26	53608.37
616.46	54282.15
616.66	53908.44
616.86	54442.14
617.06	54172.62
617.26	54797.75
617.46	54592.13
617.66	54368.08
617.86	54434.76
618.07	54803.64
618.27	54994.27
618.47	55096.26
618.67	55283.61
618.87	55436.38
619.07	55219.63
619.27	55321.86
619.47	55469.89
619.67	56036.19
619.87	55753.98
620.07	56185.78
620.27	56228.29
620.47	56071.58
620.67	56400.57
620.87	56504.03
621.07	56789.76
621.27	56844.40
621.47	56498.13
621.67	57098.35
621.87	56828.43
622.07	57450.77
622.27	57407.92
622.47	57144.55
622.67	57431.11
622.87	57076.97
623.07	57729.54
623.27	58134.54
623.47	57329.69
623.67	58030.51
623.87	58522.84
624.07	58505.72
624.27	58222.36
624.47	58728.78
624.67	58643.91
624.87	58939.80
625.07	58677.58
625.27	59319.50
625.47	58913.75
625.67	58954.79
625.87	59309.67
626.07	59217.51
626.27	59573.20
626.47	59461.46
626.67	59440.33
626.87	59286.16
627.07	59927.17
627.27	59867.04
627.47	60113.86
627.67	59949.70
627.87	59976.57
628.07	60483.23
628.27	60299.90
628.47	60188.65
628.67	60845.15
628.86	60989.16
629.06	60677.30
629.26	60564.01
629.46	61132.44
629.66	61097.22
629.86	60674.27
630.06	61282.43
630.26	61111.72
630.46	61642.55
630.66	61159.47
630.86	61336.58
631.06	61487.23
631.26	61266.87
631.46	61735.36
631.66	61699.48
631.86	61375.49
632.06	61917.06
632.26	61691.29
632.45	61868.56
632.65	61992.42
632.85	62179.53
633.05	62082.94
633.25	62174.86
633.45	61845.46
633.65	62024.78
633.85	62665.63
634.05	61737.41
634.25	62235.48
634.45	62210.16
634.65	62609.93
634.84	62252.19
635.04	62424.14
635.24	62068.28
635.44	62461.74
635.64	62208.36
635.84	62575.77
636.04	62395.46
636.24	62377.36
636.44	62575.28
636.64	61977.43
636.84	63002.15
637.03	62246.45
637.23	62630.65
637.43	62657.93
637.63	62390.22
637.83	62724.86
638.03	62597.56
638.23	62068.44
638.43	62589.12
638.62	62843.81
638.82	61671.38
639.02	62607.96
639.22	62364.58
639.42	62602.64
639.62	62158.47
639.82	62305.93
640.02	62469.93
640.21	62625.00
640.41	62039.77
640.61	62432.33
640.81	62264.97
641.01	62108.75
641.21	62059.27
641.41	62799.41
641.61	62051.00
641.80	62013.80
642.00	62327.64
642.20	62295.44
642.40	61392.45
642.60	62005.78
642.80	62122.02
642.99	61486.90
643.19	62018.80
643.39	61248.36
643.59	61668.44
643.79	61532.29
643.99	61694.57
644.19	61398.10
644.38	60924.29
644.58	61211.08
644.78	60951.40
644.98	60897.50
645.18	61051.01
645.38	61315.53
645.57	60814.02
645.77	60894.63
645.97	60578.51
646.17	60852.93
646.37	60684.02
646.56	60395.09
646.76	60386.82
646.96	60319.32
647.16	59934.79
647.36	60113.70
647.55	59849.43
647.75	59850.90
647.95	59438.12
648.15	59678.55
648.35	59597.61
648.55	59741.21
648.74	59390.11
648.94	59274.93
649.14	59480.63
649.34	58957.33
649.54	58857.48
649.73	58853.62
649.93	58574.61
650.13	58644.57
650.33	58292.81
650.52	58604.43
650.72	58694.21
650.92	58175.34
651.12	57938.02
651.32	58170.18
651.51	58117.99
651.71	57925.73
651.91	57485.83
652.11	57302.82
652.30	57077.46
652.50	57536.62
652.70	57377.37
652.90	56849.65
653.10	57124.48
653.29	56834.16
653.49	57011.11
653.69	56501.90
653.89	56564.73
654.08	56306.53
654.28	56783.13
654.48	56328.89
654.68	56446.28
654.87	56095.99
655.07	55670.67
655.27	56119.42
655.47	55491.02
655.66	55448.59
655.86	55225.69
656.06	55676.57
656.26	54530.04
656.45	54848.29
656.65	54751.95
656.85	54513.65
657.04	54047.53
657.24	54076.94
657.44	54008.79
657.64	54489.49
657.83	53421.92
658.03	54083.09
658.23	53913.27
658.43	53605.91
658.62	53616.89
658.82	53264.80
659.02	53119.07
659.21	53273.57
659.41	52828.01
659.61	53325.67
659.81	52772.47
660.00	52462.65
660.20	52524.01
660.40	52197.73
660.59	52287.84
660.79	51834.99
660.99	52194.29
661.19	52043.47
661.38	51932.96
661.58	51175.63
661.78	51540.74
661.97	51068.07
662.17	51679.10
662.37	50845.90
662.56	50846.48
662.76	50709.18
662.96	50783.97
663.15	50815.18
663.35	50651.26
663.55	50316.38
663.74	49983.54
663.94	50408.38
664.14	49827.49
664.33	50154.43
664.53	49831.99
664.73	50177.36
664.93	49227.93
665.12	49786.20
665.32	49359.16
665.52	49341.71
665.71	48947.60
665.91	49069.25
666.10	48738.13
666.30	49085.39
666.50	48527.68
666.69	48386.78
666.89	48767.13
667.09	48880.10
667.28	48370.73
667.48	48160.69
667.68	48176.99
667.87	48192.80
668.07	47752.73
668.27	48082.78
668.46	48001.93
668.66	47547.28
668.86	47988.99
669.05	47469.38
669.25	47632.48
669.44	47305.54
669.64	47217.31
669.84	47223.13
670.03	47407.77
670.23	47075.51
670.43	46914.87
670.62	46857.03
670.82	46650.84
671.01	46797.81
671.21	46342.34
671.41	46442.69
671.60	46757.09
671.80	46800.26
672.00	46516.33
672.19	46843.76
672.39	46632.41
672.58	46408.61
672.78	46158.92
672.98	46447.77
673.17	46052.84
673.37	45489.40
673.56	45699.36
673.76	45773.17
673.96	45941.43
674.15	45662.90
674.35	45662.66
674.54	45557.88
674.74	45494.32
674.94	45409.77
675.13	45477.19
675.33	44966.10
675.52	45423.54
675.72	45337.69
675.91	45193.67
676.11	45414.44
676.31	44826.02
676.50	45004.36
676.70	44787.19
676.89	44797.19
677.09	44978.96
677.28	44819.88
677.48	44204.26
677.68	44689.22
677.87	44385.54
678.07	44269.38
678.26	44376.04
678.46	44477.38
678.65	44224.57
678.85	44529.89
679.04	44024.28
679.24	44207.37
679.44	44033.70
679.63	44212.37
679.83	44022.81
680.02	43918.85
680.22	43761.00
680.41	43892.64
680.61	43603.38
680.80	43578.89
681.00	43580.20
681.19	43693.66
681.39	43494.43
681.59	43412.10
681.78	43231.15
681.98	43572.50
682.17	42962.78
682.37	43406.86
682.56	43107.86
682.76	43487.47
682.95	43167.33
683.15	43179.37
683.34	43012.67
683.54	43162.50
683.73	43188.63
683.93	42818.11
684.12	43194.04
684.32	43273.09
684.51	42835.97
684.71	43000.54
684.90	42822.62
685.10	42703.83
685.29	42644.77
685.49	42810.74
685.68	42850.96
685.88	42730.95
686.07	42524.35
686.27	42972.69
686.46	42813.11
686.66	42657.80
686.85	42940.17
687.05	42696.95
687.24	42670.82
687.44	42891.92
687.63	42695.23
687.83	42116.81
688.02	42613.56
688.22	42765.11
688.41	42468.40
688.61	42578.50
688.80	42778.46
689.00	42477.00
689.19	42332.42
689.39	42883.89
689.58	42709.08
689.77	42649.11
689.97	42660.50
690.16	42372.31
690.36	42021.37
690.55	41996.30
690.75	42584.40
690.94	42253.77
691.14	42452.02
691.33	41962.39
691.53	42425.31
691.72	42205.93
691.91	42359.61
692.11	42367.97
692.30	42534.84
692.50	42608.48
692.69	42275.81
692.89	42432.60
693.08	42345.03
693.28	42217.89
693.47	42346.10
693.66	42316.20
693.86	42161.37
694.05	42194.38
694.25	42307.18
694.44	42469.38
694.64	42322.09
694.83	42361.82
695.02	42401.72
695.22	42493.14
695.41	42214.78
695.61	42056.68
695.80	42129.99
695.99	42017.93
696.19	42198.89
696.38	42198.64
696.58	41979.67
696.77	42548.11
696.96	42481.02
697.16	42280.72
697.35	42382.47
697.55	42345.85
697.74	42178.16
697.93	42583.33
698.13	42203.23
698.32	42349.70
698.52	42140.81
698.71	41867.20
698.90	42713.99
699.10	42213.47
699.29	42371.33
699.49	42772.40
699.68	42429.08
699.87	42508.13
700.07	42922.23
700.26	42659.76
700.45	42562.03
700.65	42303.33
700.84	42620.44
701.04	42166.28
701.23	42531.31
701.42	42264.91
701.62	42312.84
701.81	42500.92
702.00	42524.84
702.20	42220.92
702.39	42420.72
702.58	42826.79
702.78	42531.72
702.97	42597.75
703.17	42654.19
703.36	42798.53
703.55	42527.46
703.75	42531.64
703.94	42672.95
704.13	42495.68
704.33	42443.99
704.52	42838.92
704.71	42817.13
704.91	42863.08
705.10	42722.76
705.29	42883.56
705.49	42946.48
705.68	43066.82
705.87	43083.45
706.07	42666.64
706.26	43138.82
706.45	42694.25
706.65	42551.96
706.84	43053.71
707.03	43297.50
707.23	42702.03
707.42	42681.23
707.61	43166.35
707.80	42823.68
708.00	42940.99
708.19	42884.55
708.38	43415.79
708.58	42767.65
708.77	43562.92
708.96	43001.28
709.16	42938.37
709.35	43720.36
709.54	43269.89
709.74	43156.27
709.93	42879.39
710.12	43650.73
710.31	43731.51
710.51	43331.82
710.70	43253.51
710.89	43452.49
711.09	42991.86
711.28	43148.57
711.47	43555.54
711.66	43473.38
711.86	43401.78
712.05	43471.41
712.24	43683.58
712.43	43227.05
712.63	42832.86
712.82	43566.03
713.01	43377.53
713.21	43117.93
713.40	43313.06
713.59	43750.18
713.78	43264.00
713.98	43764.76
714.17	43470.02
714.36	43555.13
714.55	43085.00
714.75	43256.62
714.94	43342.96
715.13	43739.04
715.32	43150.87
715.52	43554.64
715.71	43188.22
715.90	43359.27
716.09	43167.82
716.29	43577.91
716.48	43511.31
716.67	43019.88
716.86	43472.72
717.06	43515.16
717.25	43638.20
717.44	43801.63
717.63	43776.40
717.82	43285.13
718.02	43492.55
718.21	43769.02
718.40	43882.24
718.59	43716.76
718.79	43466.25
718.98	43445.20
719.17	43780.33
719.36	43957.93
719.55	43779.26
719.75	43681.86
719.94	43661.55
720.13	43965.14
720.32	43798.68
720.51	43490.75
720.71	43513.60
720.90	43049.45
721.09	43489.52
721.28	43242.53
721.47	43771.65
721.67	43685.39
721.86	43722.90
722.05	43820.14
722.24	43274.81
722.43	43909.11
722.63	43513.85
722.82	43595.77
723.01	43611.58
723.20	43273.83
723.39	43279.15
723.58	43612.07
723.78	43106.79
723.97	43719.87
724.16	43245.24
724.35	43454.37
724.54	43171.51
724.73	43578.24
724.93	43228.03
725.12	43638.45
725.31	42904.37
725.50	43367.05
725.69	43567.18
725.88	43192.07
726.08	42783.87
726.27	43321.58
726.46	42558.27
726.65	43507.62
726.84	42847.36
727.03	43129.57
727.23	43526.71
727.42	43056.17
727.61	43080.33
727.80	42848.09
727.99	43020.70
728.18	43080.25
728.37	42738.16
728.56	42634.04
728.76	42501.41
728.95	42702.20
729.14	42676.80
729.33	42581.37
729.52	42567.44
729.71	42601.27
729.90	42586.28
730.09	42236.32
730.29	42573.42
730.48	42076.91
730.67	42605.86
730.86	42203.31
731.05	42642.89
731.24	42348.72
731.43	42456.11
731.62	42150.72
731.81	42157.11
732.01	42627.90
732.20	42149.74
732.39	42491.34
732.58	42362.32
732.77	41720.89
732.96	42302.68
733.15	42254.76
733.34	41934.86
733.53	42059.87
733.72	42079.45
733.92	42060.36
734.11	41999.42
734.30	41890.14
734.49	42182.75
734.68	41886.37
734.87	41809.28
735.06	41696.81
735.25	41778.81
735.44	41362.17
735.63	41484.31
735.82	41498.89
736.01	41234.54
736.20	41241.91
736.40	41508.07
736.59	41272.96
736.78	41505.45
736.97	41124.11
737.16	41206.36
737.35	41265.67
737.54	41276.89
737.73	40957.41
737.92	41183.01
738.11	41230.20
738.30	40906.29
738.49	40790.54
738.68	40666.60
738.87	40796.85
739.06	40483.67
739.25	40624.49
739.44	40627.52
739.63	40449.51
739.82	40150.02
740.01	40429.11
740.20	39986.02
740.39	39942.35
740.59	39880.83
740.78	39909.91
740.97	39763.28
741.16	39549.14
741.35	39712.33
741.54	39537.35
741.73	39673.66
741.92	39434.13
742.11	39528.83
742.30	39552.50
742.49	39063.78
742.68	39426.27
742.87	39294.62
743.06	38817.69
743.25	39166.17
743.44	38822.28
743.63	39120.22
743.82	38758.63
744.01	38644.19
744.20	38374.02
744.39	38621.58
744.58	38484.69
744.77	38243.52
744.96	37880.62
745.15	38167.91
745.34	38001.04
745.53	38072.56
745.72	37723.09
745.91	37809.11
746.10	37558.44
746.29	37793.38
746.48	37680.25
746.67	37570.31
746.86	37484.87
747.04	37442.93
747.23	37245.18
747.42	37538.86
747.61	37165.88
747.80	37676.48
747.99	37003.44
748.18	37326.44
748.37	37192.34
748.56	36628.58
748.75	36804.37
748.94	36673.30
749.13	36632.67
749.32	36352.84
749.51	36486.94
749.70	36394.78
749.89	36148.12
750.08	36244.38
750.27	35797.84
750.46	35979.53
750.65	36252.73
750.84	35679.47
751.02	35855.67
751.21	35718.13
751.40	35805.78
751.59	35822.17
751.78	35500.31
751.97	35513.01
752.16	35214.09
752.35	35527.51
752.54	35014.70
752.73	35325.82
752.92	34878.96
753.11	34804.49
753.30	34918.19
753.49	34957.52
753.67	34832.43
753.86	34582.98
754.05	34697.92
754.24	34448.39
754.43	34389.08
754.62	34341.81
754.81	33962.37
755.00	34142.83
755.19	34023.15
755.38	33637.64
755.56	33856.20
755.75	34057.64
755.94	33583.66
756.13	33474.13
756.32	33538.60
756.51	33341.10
756.70	33439.81
756.89	33265.24
757.08	33067.57
757.26	33207.24
757.45	33039.14
757.64	32835.25
757.83	33163.25
758.02	32760.62
758.21	32749.07
758.40	32780.12
758.59	32723.35
758.77	32469.07
758.96	32462.19
759.15	32464.73
759.34	32136.73
759.53	32226.84
759.72	32094.54
759.91	31757.20
760.09	31871.39
760.28	31979.77
760.47	31563.29
760.66	31766.37
760.85	31278.30
761.04	31582.38
761.23	31453.93
761.41	31449.02
761.60	31514.14
761.79	31166.81
761.98	30933.75
762.17	31210.72
762.36	30827.50
762.54	31126.75
762.73	30850.03
762.92	30692.01
763.11	31000.27
763.30	30979.46
763.49	30796.45
763.67	30655.88
763.86	30583.63
764.05	30704.70
764.24	30510.07
764.43	30721.58
764.61	30180.26
764.80	30149.87
764.99	30384.24
765.18	29916.97
765.37	30030.92
765.55	29977.18
765.74	29680.56
765.93	29521.31
766.12	29684.24
766.31	29555.47
766.49	29509.43
766.68	29533.35
766.87	29375.98
767.06	29222.55
767.25	29303.65
767.43	29239.59
767.62	28977.04
767.81	29149.15
768.00	28888.32
768.19	28806.07
768.37	28885.04
768.56	28794.60
768.75	28786.58
768.94	28860.22
769.12	28487.41
769.31	28459.07
769.50	28352.90
769.69	28412.95
769.88	28032.43
770.06	28462.92
770.25	28041.61
770.44	27947.81
770.63	28168.83
770.81	28039.15
771.00	27898.66
771.19	27961.33
771.38	27832.39
771.56	27893.09
771.75	27387.16
771.94	27671.17
772.13	27630.05
772.31	27429.76
772.50	27688.54
772.69	27459.82
772.88	27703.77
773.06	27221.35
773.25	27365.29
773.44	27324.49
773.62	27247.90
773.81	27274.27
774.00	27104.29
774.19	27223.48
774.37	27064.56
774.56	27277.22
774.75	26845.76
774.94	27036.14
775.12	26761.54
775.31	26880.57
775.50	26716.33
775.68	26609.83
775.87	26553.06
776.06	26385.21
776.25	26614.99
776.43	26339.66
776.62	26530.86
776.81	26178.94
776.99	26298.46
777.18	26302.39
777.37	25970.05
777.55	26096.20
777.74	26144.21
777.93	26021.90
778.12	25984.14
778.30	25796.71
778.49	25832.42
778.68	25906.23
778.86	25740.59
779.05	25875.76
779.24	25805.64
779.42	25650.15
779.61	25464.28
779.80	25572.08
779.98	25703.15
780.17	25737.40
780.36	25325.75
780.54	25536.45
780.73	25111.87
780.92	25474.68
781.10	25238.76
781.29	25148.65
781.48	24972.44
781.66	25126.53
781.85	25078.69
782.04	24936.15
782.22	25058.13
782.41	24872.33
782.60	25013.81
782.78	24872.74
782.97	24990.87
783.16	24620.76
783.34	24626.25
783.53	24689.33
783.71	24599.63
783.90	24595.53
784.09	24491.17
784.27	24497.31
784.46	24433.50
784.65	24433.50
784.83	24239.76
785.02	24213.22
785.20	24480.27
785.39	24025.54
785.58	24408.92
785.76	24256.80
785.95	24274.82
786.14	24307.67
786.32	24209.04
786.51	24213.30
786.69	24328.56
786.88	24207.40
787.07	24156.45
787.25	24180.61
787.44	24181.51
787.62	24100.25
787.81	24241.89
788.00	24095.17
788.18	23871.21
788.37	23912.82
788.55	24258.44
788.74	23946.00
788.93	24044.96
789.11	24214.12
789.30	23999.16
789.48	23833.52
789.67	24034.55
789.86	23938.79
790.04	24034.22
790.23	23893.08
790.41	23850.23
790.60	24002.44
790.78	24013.91
790.97	23793.14
791.16	23971.39
791.34	24180.94
791.53	23875.22
791.71	24136.54
791.90	23829.35
792.08	23887.84
792.27	23872.60
792.46	23810.75
792.64	23873.34
792.83	23722.28
793.01	23831.72
793.20	23718.67
793.38	23702.62
793.57	23718.02
793.75	23749.39
793.94	23780.77
794.12	24020.05
794.31	23736.53
794.50	23873.50
794.68	23959.60
794.87	23851.05
795.05	24026.52
795.24	23841.55
795.42	23757.83
795.61	24027.92
795.79	24076.58
795.98	23801.66
796.16	23966.97
796.35	23971.06
796.53	23830.74
796.72	23986.06
796.90	23997.20
797.09	23959.27
797.27	23880.30
797.46	23859.49
797.64	24010.71
797.83	23877.43
798.01	24001.21
798.20	24100.58
798.38	23911.51
798.57	24138.83
798.75	23958.29
798.94	23681.56
799.12	24224.19
799.31	24021.12
799.49	23962.71
799.68	23909.54
799.86	23866.45
800.05	23858.10
800.23	23867.19
800.42	23747.26
800.60	23979.01
800.79	23675.58
800.97	23840.57
801.16	23986.55
801.34	23672.31
801.53	23673.78
801.71	23864.24
801.90	23657.89
802.08	23991.71
802.27	23759.63
802.45	23674.03
802.64	23819.84
802.82	23900.37
803.00	23671.16
803.19	23824.43
803.37	24036.19
803.56	23786.75
803.74	23796.82
803.93	23842.78
804.11	23751.93
804.30	23649.53
804.48	23775.69
804.67	23771.18
804.85	23715.07
805.03	23828.61
805.22	23576.05
805.40	23494.46
805.59	23679.11
805.77	23722.28
805.96	23618.16
806.14	23567.78
806.32	23677.55
806.51	23843.84
806.69	23628.81
806.88	23550.99
807.06	23506.18
807.25	23592.76
807.43	23529.03
807.61	23580.07
807.80	23421.96
807.98	23538.12
808.17	23368.39
808.35	23334.88
808.53	23616.44
808.72	23487.99
808.90	23578.84
809.09	23576.22
809.27	23533.13
809.45	23432.78
809.64	23618.90
809.82	23390.67
810.01	23449.24
810.19	23471.28
810.37	23380.27
810.56	23258.94
810.74	23440.15
810.93	23168.18
811.11	23334.23
811.29	23121.73
811.48	23250.83
811.66	23271.48
811.84	23152.61
812.03	23130.33
812.21	23113.21
812.40	23176.86
812.58	23309.98
812.76	23084.70
812.95	23288.52
813.13	22948.96
813.31	23103.63
813.50	23195.38
813.68	23157.04
813.86	23232.24
814.05	23388.87
814.23	23035.55
814.42	23230.44
814.60	23119.68
814.78	23298.84
814.97	23143.93
815.15	23135.41
815.33	23278.11
815.52	23107.23
815.70	23144.18
815.88	23134.10
816.07	22995.66
816.25	23053.90
816.43	23073.56
816.62	22845.58
816.80	22995.25
816.98	22971.25
817.17	22919.97
817.35	22931.76
817.53	22945.03
817.72	23130.25
817.90	22800.45
818.08	22938.07
818.26	23016.63
818.45	22824.20
818.63	22905.96
818.81	22933.81
819.00	22631.20
819.18	22931.19
819.36	22943.07
819.55	22952.65
819.73	22836.41
819.91	23047.68
820.09	22917.43
820.28	23059.31
820.46	22855.74
820.64	23133.86
820.83	22880.73
821.01	22893.91
821.19	22864.18
821.38	22892.77
821.56	22809.95
821.74	22924.55
821.92	22693.05
822.11	22976.00
822.29	22666.02
822.47	22750.97
822.65	22856.97
822.84	22922.91
823.02	22670.36
823.20	23023.43
823.39	22742.20
823.57	22799.95
823.75	22832.97
823.93	22734.34
824.12	22862.54
824.30	22710.42
824.48	22716.15
824.66	22945.93
824.85	22506.03
825.03	22830.59
825.21	22841.08
825.39	22742.37
825.58	22772.84
825.76	22635.22
825.94	22713.61
826.12	22609.98
826.31	22525.69
826.49	22628.66
826.67	22643.24
826.85	22534.37
827.03	22635.63
827.22	22751.79
827.40	22601.55
827.58	22650.86
827.76	22752.20
827.95	22622.03
828.13	22658.89
828.31	22681.99
828.49	22767.68
828.67	22590.57
828.86	22543.30
829.04	22601.30
829.22	22458.84
829.40	22471.54
829.58	22420.75
829.77	22500.38
829.95	22525.77
830.13	22485.88
830.31	22479.08
830.49	22531.67
830.68	22558.46
830.86	22463.43
831.04	22442.21
831.22	22512.83
831.40	22434.76
831.59	22591.23
831.77	22400.27
831.95	22545.68
832.13	22358.58
832.31	22495.79
832.50	22415.26
832.68	22341.54
832.86	22366.69
833.04	22535.11
833.22	22188.68
833.40	22588.28
833.59	22289.44
833.77	22519.38
833.95	21995.84
834.13	22694.36
834.31	22337.11
834.49	22369.88
834.67	22399.54
834.86	22430.91
835.04	22347.60
835.22	22448.93
835.40	22347.11
835.58	22288.04
835.76	22350.22
835.95	22315.65
836.13	22254.54
836.31	22181.63
836.49	22379.71
836.67	22418.54
836.85	22366.44
837.03	22268.71
837.21	22347.44
837.40	22131.74
837.58	21955.29
837.76	22152.22
837.94	22111.35
838.12	22285.59
838.30	22147.80
838.48	22105.94
838.66	22104.05
838.85	22128.30
839.03	22168.85
839.21	22108.81
839.39	22100.12
839.57	22215.96
839.75	22022.63
839.93	22136.74
840.11	22082.10
840.29	22098.40
840.47	22145.75
840.66	22094.31
840.84	22079.72
841.02	21943.00
841.20	22051.71
841.38	21984.45
841.56	21964.38
841.74	22253.31
841.92	22020.17
842.10	21965.86
842.28	22125.27
842.46	21975.20
842.65	21956.35
842.83	22124.45
843.01	22228.82
843.19	22009.93
843.37	22084.64
843.55	21993.79
843.73	22106.76
843.91	22150.91
844.09	21989.94
844.27	22180.73
844.45	21902.78
844.63	21870.42
844.81	21910.32
844.99	21963.81
845.17	21818.73
845.35	22038.19
845.54	21882.55
845.72	21876.32
845.90	21895.74
846.08	21852.81
846.26	21624.67
846.44	21880.58
846.62	21645.72
846.80	21700.28
846.98	21642.28
847.16	21711.09
847.34	21711.75
847.52	21684.63
847.70	21595.26
847.88	21761.63
848.06	21665.13
848.24	21748.69
848.42	21725.10
848.60	21542.09
848.78	21703.80
848.96	21695.12
849.14	21599.76
849.32	21758.52
849.50	21488.76
849.68	21701.83
849.86	21660.87
850.04	21514.24
850.22	21487.12
850.40	21363.51
850.58	21560.85
850.76	21866.98
850.94	21255.70
851.12	21596.90
851.30	21383.42
851.48	21559.46
851.66	21357.04
851.84	21359.41
852.02	21331.64
852.20	21472.79
852.38	21229.41
852.56	21379.65
852.74	21324.11
852.92	21221.71
853.10	21137.99
853.28	21252.18
853.46	20938.19
853.64	21176.98
853.82	21058.20
854.00	21065.65
854.18	20964.56
854.36	20939.74
854.54	21088.10
854.72	20969.64
854.90	20892.89
855.07	20965.47
855.25	20962.93
855.43	21029.20
855.61	20989.71
855.79	20949.33
855.97	21002.57
856.15	20980.62
856.33	20897.56
856.51	21126.85
856.69	20769.43
856.87	21031.98
857.05	20942.69
857.23	21056.40
857.41	20834.15
857.59	20886.33
857.77	20889.45
857.94	20876.17
858.12	21008.64
858.30	20837.84
858.48	20848.98
858.66	20718.40
858.84	20854.88
859.02	20662.28
859.20	20541.95
859.38	20899.77
859.56	20754.61
859.74	20660.40
859.92	20670.31
860.09	20511.06
860.27	20681.54
860.45	20425.70
860.63	20523.76
860.81	20655.24
860.99	20443.64
861.17	20238.11
861.35	19944.35
861.53	19846.29
861.70	19844.82
861.88	20209.60
862.06	20198.46
862.24	19865.95
862.42	19853.99
862.60	20137.19
862.78	20156.76
862.96	20214.52
863.14	20078.94
863.31	20104.34
863.49	20036.43
863.67	20051.58
863.85	19992.68
864.03	20107.37
864.21	20090.41
864.39	20150.05
864.56	19977.44
864.74	19999.40
864.92	19953.69
865.10	19850.14
865.28	19869.39
865.46	20076.48
865.64	19673.69
865.81	19933.13
865.99	19677.62
866.17	19954.92
866.35	19818.19
866.53	19838.26
866.71	19737.83
866.88	19789.03
867.06	19552.29
867.24	19685.89
867.42	19492.89
867.60	19608.73
867.78	19425.80
867.95	19636.09
868.13	19293.67
868.31	19513.13
868.49	19449.64
868.67	19350.44
868.84	19298.66
869.02	19384.27
869.20	19021.94
869.38	19276.22
869.56	19116.56
869.73	19049.06
869.91	19177.92
870.09	19177.10
870.27	19007.53
870.45	19057.17
870.62	18885.38
870.80	19102.31
870.98	18938.55
871.16	18979.92
871.34	18964.27
871.51	18916.60
871.69	18803.22
871.87	18803.63
872.05	18732.52
872.23	18712.86
872.40	18617.02
872.58	18677.07
872.76	18549.52
872.94	18464.16
873.11	18556.07
873.29	18456.95
873.47	18491.03
873.65	18475.05
873.83	18455.31
874.00	18450.97
874.18	18577.12
874.36	18471.86
874.54	18499.14
874.71	18382.81
874.89	18222.83
875.07	18360.29
875.25	18233.56
875.42	18247.57
875.60	18219.30
875.78	18379.70
875.96	18142.63
876.13	18235.36
876.31	18030.64
876.49	18077.09
876.66	17914.32
876.84	18203.17
877.02	17943.89
877.20	17965.11
877.37	18051.62
877.55	17967.81
877.73	17919.24
877.91	17870.66
878.08	17951.51
878.26	17943.48
878.44	17887.45
878.61	17846.16
878.79	17741.31
878.97	17790.70
879.15	17858.94
879.32	17846.98
879.50	17777.43
879.68	17920.22
879.85	17705.67
880.03	17866.15
880.21	17693.39
880.38	17894.82
880.56	17648.00
880.74	17866.64
880.92	17591.40
881.09	17741.96
881.27	17675.12
881.45	17698.05
881.62	17624.98
881.80	17535.77
881.98	17506.77
882.15	17629.57
882.33	17443.04
882.51	17516.52
882.68	17355.14
882.86	17550.35
883.04	17327.62
883.21	17390.70
883.39	17532.74
883.57	17403.15
883.74	17418.30
883.92	17445.34
884.10	17424.86
884.27	17414.37
884.45	17306.40
884.63	17441.40
884.80	17400.20
884.98	17399.79
885.16	17350.23
885.33	17354.32
885.51	17328.76
885.69	17349.65
885.86	17274.29
886.04	17344.33
886.21	17136.91
886.39	17297.06
886.57	17008.63
886.74	17211.78
886.92	17209.82
887.10	17190.98
887.27	17179.43
887.45	17160.67
887.62	17106.36
887.80	17138.96
887.98	17305.42
888.15	17269.46
888.33	17146.09
888.51	17318.61
888.68	17126.83
888.86	17271.42
889.03	17118.64
889.21	17195.40
889.39	17257.74
889.56	17271.67
889.74	17231.20
889.91	17288.79
890.09	17243.32
890.27	17291.74
890.44	17238.82
890.62	17252.74
890.79	17263.48
890.97	17265.36
891.14	17194.66
891.32	17203.92
891.50	17110.12
891.67	17161.65
891.85	17085.06
892.02	17060.15
892.20	17199.58
892.38	17090.30
892.55	16967.58
892.73	17062.04
892.90	16943.34
893.08	17010.02
893.25	16908.44
893.43	17105.78
893.60	16879.44
893.78	16986.75
893.96	16912.95
894.13	16996.75
894.31	17070.39
894.48	16950.55
894.66	17010.35
894.83	17044.83
895.01	16985.12
895.18	17049.67
895.36	16922.04
895.53	17076.70
895.71	16956.12
895.89	16961.77
896.06	16799.65
896.24	16842.99
896.41	16814.97
896.59	16855.68
896.76	16636.22
896.94	16782.53
897.11	16729.69
897.29	16823.08
897.46	16625.25
897.64	16716.18
897.81	16639.99
897.99	16525.63
898.16	16737.56
898.34	16721.66
898.51	16668.01
898.69	16516.46
898.86	16558.07
899.04	16647.20
899.21	16455.76
899.39	16565.77
899.56	16405.05
899.74	16638.27
899.91	16464.85
900.09	16420.53
900.26	16442.73
900.44	16296.42
900.61	16350.33
900.79	16442.24
900.96	16297.41
901.14	16279.96
901.31	16226.79
901.49	16205.74
901.66	16200.50
901.84	16222.86
902.01	16094.49
902.19	16142.01
902.36	15971.21
902.54	15965.23
902.71	15991.93
902.88	16022.00
903.06	15764.03
903.23	16026.75
903.41	15855.21
903.58	15825.23
903.76	15707.59
903.93	15820.56
904.11	15835.47
904.28	15732.82
904.45	15718.65
904.63	15708.08
904.80	15570.46
904.98	15662.95
905.15	15522.46
905.33	15662.46
905.50	15519.18
905.68	15555.22
905.85	15440.87
906.02	15367.47
906.20	15447.42
906.37	15279.16
906.55	15238.69
906.72	15304.88
906.90	15087.47
907.07	15034.96
907.24	15064.20
907.42	14928.79
907.59	14969.34
907.77	14905.53
907.94	14884.39
908.11	14909.05
908.29	14809.76
908.46	14795.43
908.64	14707.53
908.81	14782.24
908.98	14646.09
909.16	14736.94
909.33	14572.44
909.51	14482.25
909.68	14510.51
909.85	14446.70
910.03	14452.93
910.20	14343.32
910.37	14286.96
910.55	14293.84
910.72	14214.38
910.90	14155.48
911.07	14122.30
911.24	14044.23
911.42	14142.04
911.59	13948.55
911.76	13981.73
911.94	13837.22
912.11	13850.25
912.29	13839.68
912.46	13733.84
912.63	13761.37
912.81	13652.50
912.98	13703.45
913.15	13533.88
913.33	13627.02
913.50	13614.90
913.67	13525.69
913.85	13488.91
914.02	13534.37
914.19	13515.28
914.37	13447.95
914.54	13413.21
914.71	13358.08
914.89	13337.19
915.06	13336.45
915.23	13279.36
915.41	13203.58
915.58	13182.61
915.75	13127.23
915.93	13126.99
916.10	13027.37
916.27	12958.40
916.45	13005.50
916.62	12929.97
916.79	12949.80
916.97	12849.04
917.14	12858.21
917.31	12759.75
917.49	12794.40
917.66	12735.74
917.83	12674.39
918.00	12652.43
918.18	12584.69
918.35	12488.92
918.52	12586.24
918.70	12448.37
918.87	12395.70
919.04	12385.54
919.21	12365.72
919.39	12269.46
919.56	12322.46
919.73	12196.15
919.91	12227.60
920.08	12164.69
920.25	12086.37
920.42	12221.54
920.60	12082.44
920.77	11991.59
920.94	12055.33
921.11	11884.94
921.29	11919.75
921.46	11772.79
921.63	11884.77
921.81	11746.74
921.98	11753.54
922.15	11757.63
922.32	11798.59
922.50	11653.27
922.67	11684.07
922.84	11600.35
923.01	11530.64
923.19	11471.66
923.36	11506.14
923.53	11297.91
923.70	11402.84
923.87	11360.33
924.05	11394.24
924.22	11247.61
924.39	11281.03
924.56	11188.54
924.74	11223.61
924.91	11187.40
925.08	11122.03
925.25	11116.46
925.43	11095.40
925.60	10990.38
925.77	11085.65
925.94	10980.88
926.11	10998.17
926.29	10878.97
926.46	10911.09
926.63	10873.73
926.80	10826.30
926.97	10755.52
927.15	10807.54
927.32	10638.54
927.49	10624.37
927.66	10629.45
927.83	10650.26
928.01	10541.71
928.18	10501.49
928.35	10451.11
928.52	10538.44
928.69	10383.61
928.87	10395.65
929.04	10332.41
929.21	10392.13
929.38	10295.79
929.55	10329.79
929.72	10214.78
929.90	10218.46
930.07	10213.06
930.24	10079.61
930.41	10107.22
930.58	10058.72
930.75	10082.81
930.93	10010.31
931.10	9975.25
931.27	9922.24
931.44	9912.00
931.61	9820.67
931.78	9915.04
931.95	9851.39
932.13	9774.95
932.30	9868.26
932.47	9683.21
932.64	9755.95
932.81	9739.07
932.98	9672.80
933.15	9679.93
933.33	9591.05
933.50	9649.46
933.67	9587.61
933.84	9577.20
934.01	9563.52
934.18	9528.95
934.35	9518.96
934.52	9483.32
934.70	9489.88
934.87	9430.40
935.04	9378.39
935.21	9338.90
935.38	9317.68
935.55	9257.15
935.72	9315.14
935.89	9198.66
936.06	9230.36
936.24	9129.27
936.41	9255.51
936.58	9166.79
936.75	9171.38
936.92	9157.21
937.09	9133.69
937.26	9080.78
937.43	9103.88
937.60	9088.97
937.77	9021.14
937.94	9028.43
938.12	9021.30
938.29	8928.73
938.46	8983.29
938.63	8902.36
938.80	8947.08
938.97	8867.95
939.14	8863.44
939.31	8836.08
939.48	8838.87
939.65	8747.37
939.82	8772.76
939.99	8705.75
940.16	8709.77
940.33	8686.50
940.50	8643.57
940.67	8647.34
940.85	8636.37
941.02	8612.45
941.19	8611.22
941.36	8556.25
941.53	8588.85
941.70	8536.83
941.87	8466.96
942.04	8497.76
942.21	8482.11
942.38	8440.58
942.55	8359.15
942.72	8409.29
942.89	8373.82
943.06	8326.80
943.23	8318.44
943.40	8255.36
943.57	8304.68
943.74	8269.94
943.91	8243.89
944.08	8240.94
944.25	8281.90
944.42	8168.77
944.59	8140.59
944.76	8180.41
944.93	8140.02
945.10	8146.49
945.27	8130.11
945.44	8012.31
945.61	8027.38
945.78	7955.13
945.95	7952.51
946.12	7889.76
946.29	7950.21
946.46	7920.81
946.63	7885.42
946.80	7855.93
946.97	7871.16
947.14	7816.85
947.31	7855.68
947.48	7811.61
947.65	7771.80
947.82	7769.01
947.99	7810.63
948.16	7702.08
948.33	7767.45
948.50	7689.30
948.67	7694.05
948.84	7660.22
949.01	7630.73
949.18	7615.58
949.35	7656.45
949.52	7549.63
949.68	7551.60
949.85	7553.56
950.02	7562.41
950.19	7527.60
950.36	7492.86
950.53	7499.09
950.70	7483.11
950.87	7439.94
951.04	7531.53
951.21	7450.10
951.38	7358.60
951.55	7394.64
951.72	7377.93
951.89	7366.38
952.06	7380.47
952.23	7345.90
952.39	7333.69
952.56	7240.88
952.73	7295.44
952.90	7232.77
953.07	7287.66
953.24	7195.74
953.41	7213.19
953.58	7151.83
953.75	7208.03
953.92	7127.01
954.09	7131.11
954.25	7079.50
954.42	7082.78
954.59	7054.02
954.76	6999.79
954.93	7021.67
955.10	7071.64
955.27	7005.77
955.44	6997.58
955.61	6985.95
955.77	7014.13
955.94	6977.27
956.11	6986.77
956.28	6968.17
956.45	6921.48
956.62	6949.99
956.79	6948.43
956.96	6955.97
957.12	6906.98
957.29	6871.18
957.46	6879.21
957.63	6836.78
957.80	6799.67
957.97	6798.52
958.14	6839.07
958.30	6737.24
958.47	6753.14
958.64	6748.14
958.81	6794.10
958.98	6712.18
959.15	6712.26
959.32	6736.01
959.48	6693.09
959.65	6644.10
959.82	6677.69
959.99	6638.12
960.16	6650.41
960.33	6615.84
960.49	6594.54
960.66	6586.51
960.83	6582.25
961.00	6573.90
961.17	6572.59
961.33	6547.68
961.50	6528.02
961.67	6510.98
961.84	6518.93
962.01	6488.62
962.18	6513.52
962.34	6465.36
962.51	6464.70
962.68	6389.17
962.85	6474.53
963.02	6399.08
963.18	6395.97
963.35	6346.25
963.52	6356.24
963.69	6364.35
963.86	6368.12
964.02	6283.74
964.19	6323.80
964.36	6313.48
964.53	6296.93
964.69	6210.92
964.86	6257.94
965.03	6197.97
965.20	6237.79
965.37	6147.84
965.53	6192.16
965.70	6169.87
965.87	6171.35
966.04	6152.10
966.20	6125.72
966.37	6111.14
966.54	6072.47
966.71	6145.46
966.87	6062.56
967.04	6070.34
967.21	6062.56
967.38	6041.34
967.54	6052.24
967.71	6013.90
967.88	6028.32
968.05	6015.38
968.21	5952.13
968.38	5939.60
968.55	5961.72
968.72	5926.17
968.88	5879.96
969.05	5932.56
969.22	5912.16
969.39	5906.59
969.55	5901.67
969.72	5868.41
969.89	5876.11
970.05	5897.90
970.22	5873.41
970.39	5845.64
970.56	5855.80
970.72	5868.82
970.89	5873.25
971.06	5812.71
971.22	5815.49
971.39	5793.62
971.56	5814.02
971.73	5762.33
971.89	5787.72
972.06	5745.04
972.23	5753.73
972.39	5699.82
972.56	5749.71
972.73	5652.56
972.89	5710.97
973.06	5719.49
973.23	5691.80
973.39	5668.12
973.56	5660.75
973.73	5644.86
973.89	5650.18
974.06	5633.22
974.23	5649.77
974.39	5606.19
974.56	5597.26
974.73	5569.00
974.89	5554.34
975.06	5546.55
975.23	5612.91
975.39	5548.77
975.56	5563.10
975.73	5547.54
975.89	5514.36
976.06	5528.78
976.23	5492.41
976.39	5492.24
976.56	5481.84
976.73	5487.16
976.89	5483.89
977.06	5438.01
977.23	5435.39
977.39	5441.94
977.56	5447.84
977.72	5381.41
977.89	5413.03
978.06	5377.06
978.22	5406.88
978.39	5371.74
978.56	5383.62
978.72	5328.57
978.89	5348.80
979.05	5303.26
979.22	5304.89
979.39	5292.12
979.55	5298.50
979.72	5286.46
979.88	5272.37
980.05	5240.67
980.22	5258.77
980.38	5255.42
980.55	5242.80
980.71	5245.50
980.88	5274.58
981.05	5250.99
981.21	5209.54
981.38	5202.58
981.54	5213.72
981.71	5193.65
981.88	5191.76
982.04	5188.90
982.21	5180.87
982.37	5142.53
982.54	5193.48
982.70	5143.10
982.87	5173.25
983.04	5103.37
983.20	5146.30
983.37	5123.77
983.53	5140.16
983.70	5096.49
983.86	5113.37
984.03	5087.24
984.20	5095.02
984.36	5088.79
984.53	5090.27
984.69	5033.09
984.86	5020.23
985.02	5033.99
985.19	4997.29
985.35	4998.85
985.52	4992.46
985.68	4975.34
985.85	4964.28
986.02	4970.75
986.18	4966.90
986.35	4959.61
986.51	4961.57
986.68	4939.37
986.84	4953.71
987.01	4929.87
987.17	4938.31
987.34	4920.37
987.50	4908.49
987.67	4881.54
987.83	4905.62
988.00	4883.34
988.16	4872.94
988.33	4880.23
988.49	4875.72
988.66	4837.22
988.82	4822.64
988.99	4823.29
989.15	4829.36
989.32	4792.90
989.48	4820.75
989.65	4771.85
989.81	4777.91
989.98	4762.51
990.14	4776.52
990.31	4756.04
990.47	4764.56
990.64	4736.95
990.80	4753.17
990.97	4733.67
991.13	4734.82
991.30	4710.57
991.46	4706.89
991.63	4696.65
991.79	4718.93
991.95	4660.52
992.12	4711.88
992.28	4667.57
992.45	4660.11
992.61	4658.06
992.78	4650.53
992.94	4624.23
993.11	4677.64
993.27	4629.72
993.44	4631.11
993.60	4615.22
993.76	4617.19
993.93	4620.14
994.09	4608.34
994.26	4588.02
994.42	4589.33
994.59	4585.40
994.75	4596.46
994.91	4584.17
995.08	4550.34
995.24	4539.94
995.41	4556.48
995.57	4542.56
995.74	4511.76
995.90	4503.32
996.06	4523.14
996.23	4516.92
996.39	4501.27
996.56	4493.90
996.72	4499.55
996.88	4494.23
997.05	4488.98
997.21	4464.74
997.38	4483.00
997.54	4452.78
997.70	4466.37
997.87	4442.62
998.03	4465.55
998.20	4406.74
998.36	4426.48
998.52	4422.38
998.69	4473.75
998.85	4399.36
999.02	4420.83
999.18	4382.41
999.34	4413.29
999.51	4419.60
999.67	4408.79
999.83	4381.26
1000.00	4366.52
1000.16	4350.95
1000.33	4362.66
1000.49	4348.57
1000.65	4353.16
1000.82	4359.47
1000.98	4313.60
1001.14	4334.48
1001.31	4328.26
1001.47	4343.74
1001.63	4322.20
1001.80	4302.86
1001.96	4276.57
1002.12	4289.02
1002.29	4289.43
1002.45	4276.73
1002.61	4265.59
1002.78	4260.18
1002.94	4266.33
1003.10	4220.37
1003.27	4252.73
1003.43	4231.68
1003.59	4227.01
1003.76	4227.83
1003.92	4236.59
1004.08	4237.08
1004.25	4249.37
1004.41	4200.71
1004.57	4215.13
1004.74	4199.81
1004.90	4240.69
1005.06	4201.12
1005.23	4200.14
1005.39	4183.92
1005.55	4206.86
1005.71	4185.80
1005.88	4175.07
1006.04	4187.85
1006.20	4187.85
1006.37	4144.52
1006.53	4155.00
1006.69	4150.66
1006.85	4156.31
1007.02	4138.29
1007.18	4126.49
1007.34	4128.21
1007.51	4145.91
1007.67	4104.38
1007.83	4085.21
1007.99	4082.01
1008.16	4115.76
1008.32	4058.83
1008.48	4111.34
1008.64	4093.23
1008.81	4097.08
1008.97	4075.70
1009.13	4089.71
1009.29	4058.83
1009.46	4067.76
1009.62	4063.50
1009.78	4037.04
1009.95	4050.31
1010.11	4048.02
1010.27	4031.71
1010.43	4029.09
1010.59	4034.99
1010.76	4017.21
1010.92	4007.38
1011.08	4007.71
1011.24	3972.73
1011.41	4018.52
1011.57	3995.01
1011.73	4004.60
1011.89	3971.91
1012.06	4005.34
1012.22	3943.65
1012.38	3966.92
1012.54	3962.49
1012.70	3959.87
1012.87	3935.79
1013.03	3967.08
1013.19	3947.17
1013.35	3943.40
1013.51	3903.51
1013.68	3948.57
1013.84	3906.62
1014.00	3907.77
1014.16	3902.53
1014.32	3932.35
1014.49	3885.82
1014.65	3924.81
1014.81	3878.77
1014.97	3895.40
1015.13	3883.36
1015.30	3895.81
1015.46	3869.10
1015.62	3890.49
1015.78	3869.68
1015.94	3845.51
1016.10	3872.38
1016.27	3854.28
1016.43	3848.22
1016.59	3857.39
1016.75	3832.24
1016.91	3847.48
1017.07	3843.79
1017.24	3837.65
1017.40	3805.21
1017.56	3815.12
1017.72	3795.46
1017.88	3808.73
1018.04	3781.04
1018.21	3812.66
1018.37	3796.61
1018.53	3805.21
1018.69	3799.06
1018.85	3787.27
1019.01	3764.90
1019.17	3772.11
1019.34	3752.62
1019.50	3790.38
1019.66	3740.82
1019.82	3772.69
1019.98	3749.83
1020.14	3789.64
1020.30	3731.64
1020.46	3762.61
1020.63	3769.08
1020.79	3743.20
1020.95	3764.66
1021.11	3755.97
1021.27	3716.74
1021.43	3745.57
1021.59	3729.76
1021.75	3731.40
1021.91	3694.04
1022.07	3708.38
1022.24	3694.37
1022.40	3698.47
1022.56	3684.87
1022.72	3721.16
1022.88	3686.59
1023.04	3692.32
1023.20	3663.41
1023.36	3685.93
1023.52	3665.62
1023.68	3674.71
1023.84	3660.54
1024.01	3684.21
1024.17	3646.29
1024.33	3667.09
1024.49	3666.11
1024.65	3646.04
1024.81	3651.04
1024.97	3658.25
1025.13	3643.58
1025.29	3655.13
1025.45	3622.53
1025.61	3652.51
1025.77	3629.98
1025.93	3652.76
1026.09	3621.38
1026.25	3625.81
1026.41	3623.18
1026.57	3622.53
1026.73	3620.73
1026.90	3631.95
1027.06	3600.66
1027.22	3621.30
1027.38	3621.30
1027.54	3634.49
1027.70	3604.34
1027.86	3626.54
1028.02	3598.61
1028.18	3600.41
1028.34	3607.54
1028.50	3611.63
1028.66	3567.89
1028.82	3598.53
1028.98	3579.69
1029.14	3564.69
1029.30	3584.19
1029.46	3566.99
1029.62	3568.38
1029.78	3573.87
1029.94	3579.44
1030.10	3553.47
1030.26	3544.13
1030.42	3569.61
1030.58	3551.59
1030.74	3569.77
1030.90	3540.53
1031.06	3544.71
1031.22	3545.03
1031.38	3540.04
1031.54	3539.55
1031.70	3524.31
1031.86	3529.22
1032.02	3541.10
1032.18	3527.50
1032.34	3527.26
1032.50	3517.26
1032.66	3536.35
1032.82	3498.01
1032.98	3511.77
1033.14	3520.95
1033.30	3531.19
1033.45	3500.88
1033.61	3520.70
1033.77	3483.59
1033.93	3505.14
1034.09	3487.85
1034.25	3490.15
1034.41	3468.03
1034.57	3503.01
1034.73	3493.18
1034.89	3474.99
1035.05	3494.08
1035.21	3487.36
1035.37	3470.73
1035.53	3493.10
1035.69	3485.07
1035.85	3491.05
1036.01	3470.32
1036.16	3484.99
1036.32	3489.33
1036.48	3466.56
1036.64	3466.47
1036.80	3469.34
1036.96	3471.31
1037.12	3466.72
1037.28	3470.16
1037.44	3439.60
1037.60	3470.98
1037.76	3426.17
1037.91	3436.41
1038.07	3455.41
1038.23	3449.84
1038.39	3450.01
1038.55	3446.73
1038.71	3460.66
1038.87	3423.71
1039.03	3442.39
1039.19	3421.75
1039.35	3430.92
1039.50	3441.24
1039.66	3449.03
1039.82	3432.64
1039.98	3441.41
1040.14	3412.41
1040.30	3412.41
1040.46	3406.18
1040.62	3391.68
1040.77	3416.01
1040.93	3425.27
1041.09	3413.55
1041.25	3410.03
1041.41	3400.04
1041.57	3410.11
1041.73	3410.11
1041.88	3410.11

