SpectraSuite Data File
++++++++++++++++++++++++++++++++++++
Date: Tue Sep 20 12:13:37 EDT 2022
User: Laboratoire
Dark Spectrum Present: No
Reference Spectrum Present: No
Number of Sampled Component Spectra: 1
Spectrometers: FLMT00174
Integration Time (usec): 15000 (FLMT00174)
Spectra Averaged: 25 (FLMT00174)
Boxcar Smoothing: 0 (FLMT00174)
Correct for Electrical Dark: No (FLMT00174)
Strobe/Lamp Enabled: No (FLMT00174)
Correct for Detector Non-linearity: No (FLMT00174)
Correct for Stray Light: No (FLMT00174)
Number of Pixels in Processed Spectrum: 3648
>>>>>Begin Processed Spectral Data<<<<<
345.74	3180.09
345.96	3180.09
346.18	3180.09
346.39	3175.17
346.61	3217.11
346.83	3202.45
347.05	3217.85
347.27	3232.35
347.49	3224.24
347.71	3233.41
347.93	3229.48
348.15	3226.45
348.36	3239.23
348.58	3229.89
348.80	3220.47
349.02	3220.96
349.24	3230.06
349.46	3312.22
349.68	3320.82
349.90	3329.01
350.11	3290.92
350.33	3303.29
350.55	3286.17
350.77	3312.88
350.99	3289.94
351.21	3307.22
351.43	3278.39
351.65	3315.17
351.86	3302.23
352.08	3316.73
352.30	3302.96
352.52	3312.79
352.74	3281.58
352.96	3295.67
353.18	3313.04
353.39	3316.15
353.61	3291.09
353.83	3325.00
354.05	3317.05
354.27	3318.04
354.49	3315.99
354.70	3309.68
354.92	3335.08
355.14	3291.66
355.36	3309.11
355.58	3319.35
355.80	3296.33
356.02	3314.51
356.23	3301.74
356.45	3309.52
356.67	3314.02
356.89	3322.95
357.11	3315.99
357.33	3327.46
357.54	3301.57
357.76	3309.27
357.98	3303.21
358.20	3302.64
358.42	3291.50
358.63	3312.47
358.85	3326.64
359.07	3327.62
359.29	3303.29
359.51	3284.94
359.73	3295.43
359.94	3303.37
360.16	3304.36
360.38	3308.04
360.60	3298.13
360.82	3317.38
361.03	3324.51
361.25	3307.80
361.47	3322.95
361.69	3334.83
361.91	3310.75
362.12	3302.47
362.34	3309.60
362.56	3308.21
362.78	3315.91
363.00	3325.16
363.21	3307.96
363.43	3325.00
363.65	3277.49
363.87	3305.50
364.09	3322.46
364.30	3314.51
364.52	3301.08
364.74	3325.82
364.96	3316.64
365.17	3323.28
365.39	3304.60
365.61	3294.69
365.83	3298.13
366.05	3314.92
366.26	3279.37
366.48	3322.95
366.70	3310.50
366.92	3321.48
367.13	3304.27
367.35	3314.68
367.57	3323.44
367.79	3321.64
368.01	3320.58
368.22	3335.65
368.44	3315.91
368.66	3310.99
368.88	3315.33
369.09	3315.58
369.31	3323.77
369.53	3313.53
369.75	3300.01
369.96	3345.48
370.18	3313.53
370.40	3337.86
370.62	3328.44
370.83	3303.62
371.05	3331.72
371.27	3332.37
371.49	3314.60
371.70	3320.17
371.92	3318.53
372.14	3324.18
372.36	3319.68
372.57	3338.03
372.79	3323.12
373.01	3337.62
373.22	3329.18
373.44	3346.95
373.66	3328.19
373.88	3333.27
374.09	3310.83
374.31	3334.26
374.53	3320.49
374.75	3361.54
374.96	3330.65
375.18	3335.57
375.40	3331.96
375.61	3322.21
375.83	3325.33
376.05	3344.58
376.27	3341.79
376.48	3330.08
376.70	3331.39
376.92	3323.36
377.13	3332.13
377.35	3344.74
377.57	3349.41
377.79	3326.31
378.00	3324.10
378.22	3352.03
378.44	3323.85
378.65	3347.86
378.87	3346.14
379.09	3346.87
379.30	3327.05
379.52	3343.19
379.74	3327.70
379.96	3337.86
380.17	3328.93
380.39	3332.37
380.61	3333.19
380.82	3335.24
381.04	3331.55
381.26	3354.41
381.47	3342.04
381.69	3351.38
381.91	3332.70
382.12	3343.51
382.34	3358.50
382.56	3354.49
382.77	3338.03
382.99	3353.43
383.21	3342.12
383.42	3355.88
383.64	3352.61
383.86	3353.84
384.07	3359.82
384.29	3349.99
384.51	3346.22
384.72	3359.32
384.94	3365.06
385.16	3363.17
385.37	3354.98
385.59	3362.52
385.81	3384.23
386.02	3369.89
386.24	3376.94
386.46	3380.95
386.67	3382.34
386.89	3399.14
387.11	3398.56
387.32	3379.15
387.54	3385.13
387.76	3400.45
387.97	3412.49
388.19	3401.92
388.40	3402.25
388.62	3408.23
388.84	3408.15
389.05	3421.09
389.27	3405.94
389.49	3411.42
389.70	3410.11
389.92	3431.82
390.14	3425.10
390.35	3412.49
390.57	3424.78
390.78	3442.06
391.00	3416.18
391.22	3423.38
391.43	3425.68
391.65	3458.36
391.86	3467.70
392.08	3458.86
392.30	3441.16
392.51	3460.49
392.73	3497.03
392.95	3460.49
393.16	3442.88
393.38	3483.68
393.59	3448.62
393.81	3486.63
394.03	3475.98
394.24	3479.58
394.46	3460.41
394.67	3488.26
394.89	3449.68
395.11	3476.39
395.32	3485.81
395.54	3480.65
395.75	3476.71
395.97	3466.39
396.19	3455.66
396.40	3505.88
396.62	3494.74
396.83	3488.67
397.05	3494.16
397.26	3479.42
397.48	3476.47
397.70	3482.20
397.91	3493.75
398.13	3479.01
398.34	3499.00
398.56	3499.73
398.78	3492.36
398.99	3532.66
399.21	3478.76
399.42	3511.69
399.64	3490.48
399.85	3519.64
400.07	3505.14
400.29	3520.54
400.50	3515.95
400.72	3541.43
400.93	3515.22
401.15	3518.57
401.36	3543.64
401.58	3540.45
401.79	3547.49
402.01	3546.51
402.23	3549.95
402.44	3559.53
402.66	3578.95
402.87	3575.67
403.09	3551.42
403.30	3574.52
403.52	3540.61
403.73	3559.29
403.95	3555.77
404.16	3596.07
404.38	3582.39
404.60	3574.36
404.81	3616.22
405.03	3635.64
405.24	3636.46
405.46	3626.30
405.67	3639.57
405.89	3653.08
406.10	3652.51
406.32	3642.76
406.53	3665.78
406.75	3701.01
406.96	3673.24
407.18	3697.40
407.39	3692.57
407.61	3720.59
407.82	3724.76
408.04	3769.08
408.25	3732.71
408.47	3781.86
408.68	3777.85
408.90	3754.75
409.12	3795.13
409.33	3804.72
409.55	3797.43
409.76	3833.96
409.98	3814.96
410.19	3857.64
410.41	3869.35
410.62	3882.54
410.84	3873.45
411.05	3904.82
411.27	3909.90
411.48	3906.54
411.70	3925.05
411.91	3946.52
412.12	3948.40
412.34	3938.16
412.55	3946.03
412.77	3950.45
412.98	3979.61
413.20	3983.79
413.41	3978.38
413.63	3957.25
413.84	4001.08
414.06	4026.96
414.27	4003.94
414.49	4020.74
414.70	4011.64
414.92	4029.99
415.13	4016.31
415.35	4047.69
415.56	4042.44
415.78	4025.41
415.99	4036.30
416.21	4042.69
416.42	4048.67
416.63	4066.86
416.85	4044.57
417.06	4043.35
417.28	4027.94
417.49	4052.93
417.71	4046.62
417.92	4039.17
418.14	4053.91
418.35	4064.23
418.57	4065.05
418.78	4041.13
418.99	4043.51
419.21	4059.40
419.42	4056.37
419.64	4059.40
419.85	4059.89
420.07	4092.82
420.28	4061.37
420.50	4053.26
420.71	4078.00
420.92	4058.01
421.14	4089.06
421.35	4077.67
421.57	4083.57
421.78	4091.60
422.00	4083.57
422.21	4111.34
422.42	4093.97
422.64	4080.78
422.85	4111.50
423.07	4129.44
423.28	4107.41
423.50	4131.33
423.71	4123.54
423.92	4169.09
424.14	4125.43
424.35	4152.46
424.57	4183.26
424.78	4191.54
424.99	4165.57
425.21	4180.72
425.42	4183.67
425.64	4194.65
425.85	4223.65
426.06	4233.23
426.28	4237.49
426.49	4278.53
426.71	4266.98
426.92	4270.18
427.13	4295.08
427.35	4330.72
427.56	4355.29
427.78	4337.52
427.99	4370.45
428.20	4383.14
428.42	4416.90
428.63	4434.34
428.84	4406.08
429.06	4432.21
429.27	4457.12
429.49	4486.44
429.70	4519.13
429.91	4533.96
430.13	4544.85
430.34	4565.41
430.56	4597.28
430.77	4637.99
430.98	4633.73
431.20	4664.78
431.41	4698.20
431.62	4743.34
431.84	4723.44
432.05	4767.34
432.26	4781.02
432.48	4762.10
432.69	4862.62
432.91	4857.13
433.12	4892.43
433.33	4930.03
433.55	5015.72
433.76	4999.58
433.97	4986.07
434.19	5029.07
434.40	5114.11
434.61	5109.76
434.83	5166.21
435.04	5152.44
435.25	5217.49
435.47	5234.03
435.68	5223.63
435.89	5317.51
436.11	5324.96
436.32	5375.51
436.53	5398.28
436.75	5408.93
436.96	5425.48
437.17	5433.83
437.39	5473.89
437.60	5505.84
437.81	5554.50
438.03	5564.49
438.24	5573.10
438.45	5671.89
438.67	5627.98
438.88	5730.46
439.09	5787.07
439.31	5749.39
439.52	5764.79
439.73	5789.36
439.94	5743.73
440.16	5813.28
440.37	5778.47
440.58	5869.23
440.80	5874.72
441.01	5809.19
441.22	5964.18
441.44	5931.33
441.65	5885.53
441.86	5924.53
442.08	5972.45
442.29	5910.03
442.50	5996.86
442.71	5939.93
442.93	5965.24
443.14	5944.11
443.35	6000.79
443.57	5947.06
443.78	5990.06
443.99	6031.02
444.20	5958.20
444.42	6023.32
444.63	6004.23
444.84	6014.97
445.06	6037.17
445.27	5959.92
445.48	5980.40
445.69	5994.57
445.91	5998.99
446.12	5942.80
446.33	5965.16
446.54	6052.98
446.76	5948.94
446.97	5998.66
447.18	5968.35
447.39	5994.90
447.61	6013.16
447.82	5993.67
448.03	5958.52
448.25	6015.95
448.46	6024.39
448.67	6028.65
448.88	5956.97
449.10	6045.60
449.31	6041.92
449.52	6009.31
449.73	6045.85
449.95	6138.58
450.16	6015.46
450.37	6115.73
450.58	6182.33
450.79	6043.88
451.01	6084.35
451.22	6040.28
451.43	6054.53
451.64	6131.70
451.86	6131.05
452.07	6154.64
452.28	6172.50
452.49	6219.35
452.71	6149.15
452.92	6159.63
453.13	6183.47
453.34	6202.89
453.55	6280.55
453.77	6308.97
453.98	6314.95
454.19	6265.23
454.40	6302.26
454.62	6362.14
454.83	6288.82
455.04	6412.85
455.25	6306.43
455.46	6542.60
455.68	6434.47
455.89	6444.71
456.10	6489.44
456.31	6505.82
456.52	6561.20
456.74	6551.53
456.95	6658.19
457.16	6633.13
457.37	6703.49
457.58	6702.67
457.80	6692.60
458.01	6746.99
458.22	6941.30
458.43	6847.10
458.64	6929.18
458.86	6880.27
459.07	6938.52
459.28	6959.49
459.49	7078.76
459.70	7172.81
459.91	7171.17
460.13	7201.64
460.34	7243.42
460.55	7240.14
460.76	7367.04
460.97	7414.55
461.19	7418.23
461.40	7638.76
461.61	7538.16
461.82	7634.34
462.03	7699.63
462.24	7681.28
462.46	7760.00
462.67	7790.88
462.88	7910.65
463.09	7949.40
463.30	8094.72
463.51	8067.60
463.72	8245.78
463.94	8341.13
464.15	8352.19
464.36	8296.57
464.57	8539.54
464.78	8577.71
464.99	8679.13
465.20	8636.20
465.42	8886.79
465.63	8904.65
465.84	8909.97
466.05	9031.95
466.26	9171.71
466.47	9312.20
466.68	9283.93
466.90	9484.80
467.11	9467.02
467.32	9637.25
467.53	9810.43
467.74	9689.84
467.95	9828.04
468.16	10031.28
468.37	10157.76
468.59	10183.32
468.80	10407.12
469.01	10285.72
469.22	10512.31
469.43	10742.42
469.64	10675.32
469.85	10859.80
470.06	10968.51
470.28	11094.17
470.49	10985.63
470.70	11224.18
470.91	11468.95
471.12	11324.12
471.33	11677.52
471.54	11610.51
471.75	11713.23
471.96	12065.24
472.17	11999.05
472.39	12283.06
472.60	12048.86
472.81	12346.96
473.02	12332.21
473.23	12573.95
473.44	12627.45
473.65	12602.22
473.86	12742.95
474.07	12828.39
474.28	12901.88
474.49	13201.37
474.71	13138.78
474.92	13375.45
475.13	13267.56
475.34	13315.65
475.55	13447.21
475.76	13473.01
475.97	13817.89
476.18	13715.00
476.39	13887.52
476.60	13995.25
476.81	13997.54
477.02	14144.75
477.23	14133.28
477.44	14154.00
477.65	14220.28
477.87	14414.91
478.08	14439.49
478.29	14433.59
478.50	14635.03
478.71	14519.69
478.92	14599.23
479.13	14653.79
479.34	14660.59
479.55	14762.66
479.76	14733.58
479.97	14756.43
480.18	15113.85
480.39	14809.27
480.60	15080.67
480.81	15074.61
481.02	15122.69
481.23	15100.00
481.44	15293.33
481.65	15375.17
481.86	15477.48
482.07	15150.87
482.28	15739.21
482.49	15458.40
482.71	15496.49
482.92	15587.01
483.13	15708.17
483.34	15641.81
483.55	15667.29
483.76	15642.14
483.97	15820.80
484.18	15763.05
484.39	15832.60
484.60	15763.30
484.81	16046.82
485.02	15905.67
485.23	16087.53
485.44	16072.05
485.65	16185.51
485.86	16040.35
486.07	16218.11
486.28	16201.56
486.49	16320.34
486.70	16358.76
486.91	16468.62
487.12	16305.85
487.33	16339.60
487.54	16653.92
487.75	16604.03
487.96	16651.62
488.17	16544.47
488.38	16663.58
488.59	16743.29
488.80	16780.81
489.01	16797.69
489.22	17022.55
489.43	16913.60
489.64	16901.15
489.85	17193.60
490.06	16935.72
490.26	17210.97
490.47	17072.03
490.68	17349.65
490.89	17493.59
491.10	17257.50
491.31	17530.53
491.52	17668.07
491.73	17592.79
491.94	17632.85
492.15	17769.82
492.36	17914.81
492.57	17898.18
492.78	17884.34
492.99	18009.10
493.20	18188.99
493.41	18236.34
493.62	18277.79
493.83	18329.24
494.04	18410.50
494.25	18536.17
494.46	18658.31
494.67	18568.69
494.88	18742.85
495.08	18837.71
495.29	18950.51
495.50	19197.17
495.71	19167.35
495.92	19376.24
496.13	19372.15
496.34	19426.79
496.55	19555.07
496.76	19815.33
496.97	19639.61
497.18	19902.08
497.39	19984.57
497.60	20360.99
497.81	20152.34
498.02	20417.18
498.22	20263.75
498.43	20709.22
498.64	20741.83
498.85	20896.16
499.06	20996.51
499.27	21302.23
499.48	21013.06
499.69	21309.03
499.90	21549.14
500.11	21764.50
500.32	22091.52
500.52	21900.90
500.73	22339.73
500.94	22434.84
501.15	22533.96
501.36	22651.85
501.57	22623.67
501.78	22873.19
501.99	23250.18
502.20	23256.57
502.41	23454.08
502.61	23504.05
502.82	23928.71
503.03	23811.81
503.24	24348.96
503.45	24220.75
503.66	24644.35
503.87	24716.44
504.08	25039.37
504.28	24994.80
504.49	25260.47
504.70	25460.76
504.91	25768.53
505.12	25634.83
505.33	26254.14
505.54	26295.02
505.75	26552.98
505.95	26814.79
506.16	26906.46
506.37	26922.84
506.58	27550.26
506.79	27258.46
507.00	27882.93
507.21	27731.54
507.41	28007.77
507.62	28280.73
507.83	28785.92
508.04	28540.08
508.25	29124.49
508.46	29014.47
508.67	29590.94
508.87	29493.70
509.08	30056.24
509.29	29972.43
509.50	30298.22
509.71	30473.94
509.92	30739.60
510.12	30576.42
510.33	31023.29
510.54	30991.99
510.75	31394.38
510.96	31675.44
511.17	32097.08
511.37	32083.40
511.58	32442.12
511.79	32389.61
512.00	32356.51
512.21	32954.27
512.42	32989.75
512.62	33214.61
512.83	33475.11
513.04	33447.43
513.25	33964.66
513.46	33335.93
513.66	34330.92
513.87	34216.56
514.08	34675.47
514.29	34432.17
514.50	34665.48
514.71	35017.97
514.91	34915.08
515.12	34944.00
515.33	35364.08
515.54	35264.96
515.75	35712.64
515.95	35449.44
516.16	35584.93
516.37	36089.22
516.58	36159.26
516.78	35922.19
516.99	36327.69
517.20	36249.78
517.41	36356.85
517.62	36551.90
517.82	36446.31
518.03	36803.88
518.24	37125.17
518.45	36459.82
518.66	36861.96
518.86	36627.18
519.07	37031.70
519.28	36349.23
519.49	37067.82
519.69	37071.67
519.90	37202.50
520.11	37172.68
520.32	37122.38
520.52	37360.19
520.73	36925.04
520.94	37301.29
521.15	37281.47
521.36	36790.78
521.56	37381.57
521.77	36739.66
521.98	37280.24
522.19	36746.05
522.39	37134.02
522.60	36921.35
522.81	36945.85
523.02	36690.18
523.22	36955.92
523.43	37049.64
523.64	36782.75
523.84	36805.68
524.05	37110.09
524.26	36794.46
524.47	36502.83
524.67	36638.00
524.88	36678.06
525.09	36796.51
525.30	36427.22
525.50	36325.23
525.71	36222.91
525.92	36292.22
526.13	36404.04
526.33	36121.25
526.54	35790.71
526.75	35938.74
526.95	36057.68
527.16	35363.42
527.37	35719.61
527.58	35836.83
527.78	35645.63
527.99	35711.74
528.20	35864.68
528.40	35386.11
528.61	35055.98
528.82	35356.54
529.03	35050.00
529.23	34899.76
529.44	35120.78
529.65	35020.35
529.85	34940.39
530.06	34838.82
530.27	34742.07
530.47	34431.11
530.68	34933.76
530.89	34211.15
531.09	34695.54
531.30	34343.13
531.51	34076.23
531.72	34459.78
531.92	34251.13
532.13	34470.59
532.34	34206.40
532.54	34116.54
532.75	34142.26
532.96	33956.96
533.16	34132.02
533.37	34153.48
533.58	33790.09
533.78	33977.85
533.99	33951.72
534.20	33460.53
534.40	33668.77
534.61	33679.09
534.82	33637.40
535.02	33676.06
535.23	33598.40
535.44	33655.58
535.64	33445.46
535.85	33520.17
536.06	33316.93
536.26	33238.04
536.47	33228.78
536.68	33548.68
536.88	32977.46
537.09	33460.29
537.29	32977.54
537.50	33550.23
537.71	33127.53
537.91	33289.90
538.12	33331.18
538.33	33153.01
538.53	33267.61
538.74	33241.89
538.95	33296.45
539.15	33054.87
539.36	33332.00
539.56	33470.94
539.77	33119.01
539.98	33157.92
540.18	33369.03
540.39	33028.25
540.60	33274.09
540.80	33469.54
541.01	33302.02
541.21	33315.62
541.42	33400.65
541.63	33296.37
541.83	33556.21
542.04	33508.37
542.25	33494.28
542.45	33619.54
542.66	33585.87
542.86	33704.40
543.07	33081.41
543.28	33839.82
543.48	33678.35
543.69	33949.83
543.89	33763.30
544.10	34235.32
544.31	34125.79
544.51	33938.20
544.72	34125.22
544.92	34051.00
545.13	34324.45
545.33	34245.23
545.54	34052.97
545.75	34336.98
545.95	34152.34
546.16	34373.52
546.36	34822.27
546.57	34252.93
546.78	33836.70
546.98	34426.44
547.19	33935.17
547.39	34714.46
547.60	34952.19
547.80	35541.60
548.01	35562.90
548.22	35291.01
548.42	35387.92
548.63	35611.15
548.83	35522.92
549.04	35819.55
549.24	35601.89
549.45	35955.70
549.65	36207.84
549.86	35722.06
550.07	36003.78
550.27	36474.73
550.48	36646.19
550.68	36642.99
550.89	36698.45
551.09	36992.05
551.30	36884.82
551.50	37188.00
551.71	37048.82
551.91	37054.06
552.12	37341.84
552.33	37617.91
552.53	37288.68
552.74	37989.00
552.94	38143.01
553.15	38019.07
553.35	38338.88
553.56	38119.17
553.76	38702.43
553.97	38526.47
554.17	38813.43
554.38	39472.63
554.58	38963.10
554.79	39567.25
554.99	39173.79
555.20	39441.99
555.40	39859.12
555.61	39753.86
555.81	39736.16
556.02	40641.69
556.22	40534.46
556.43	40444.76
556.63	40744.58
556.84	41028.10
557.04	41643.23
557.25	41061.94
557.45	41531.82
557.66	41612.43
557.86	41612.19
558.07	42249.19
558.27	41944.53
558.48	42168.82
558.68	42389.27
558.89	42602.67
559.09	42664.43
559.30	42564.33
559.50	42980.47
559.71	42785.84
559.91	43642.95
560.12	43511.72
560.32	43657.04
560.53	43950.15
560.73	43863.31
560.94	44324.60
561.14	44050.33
561.35	44689.14
561.55	44702.08
561.76	45016.16
561.96	44700.52
562.17	45405.11
562.37	45651.44
562.57	45553.62
562.78	45662.99
562.98	45989.27
563.19	46081.43
563.39	46315.55
563.60	46445.97
563.80	46046.12
564.01	46733.01
564.21	46578.02
564.42	46546.48
564.62	46871.70
564.82	47395.32
565.03	47287.76
565.23	47455.20
565.44	47793.12
565.64	47772.31
565.85	48215.33
566.05	48046.33
566.25	48339.11
566.46	48273.00
566.66	48554.88
566.87	48523.51
567.07	48604.69
567.28	48789.17
567.48	49153.87
567.68	48558.73
567.89	49685.69
568.09	49175.42
568.30	49326.47
568.50	49707.64
568.71	49580.83
568.91	49909.00
569.11	49500.63
569.32	49719.03
569.52	49918.26
569.73	49372.68
569.93	49995.50
570.13	49828.14
570.34	49752.12
570.54	50276.57
570.75	50018.03
570.95	50016.48
571.15	50110.85
571.36	50589.99
571.56	50165.98
571.77	50130.34
571.97	49733.94
572.17	50587.53
572.38	50481.61
572.58	50795.61
572.79	50580.57
572.99	50553.21
573.19	50398.95
573.40	50133.37
573.60	50276.40
573.81	50147.30
574.01	50346.03
574.21	50247.81
574.42	50249.21
574.62	50115.93
574.82	50637.09
575.03	50256.58
575.23	50754.07
575.43	50344.56
575.64	50263.13
575.84	50663.47
576.05	50049.82
576.25	50258.96
576.45	49909.65
576.66	50278.29
576.86	49800.70
577.06	50069.40
577.27	49851.74
577.47	49862.80
577.67	49705.18
577.88	49139.37
578.08	49639.40
578.28	49815.28
578.49	49545.12
578.69	49628.92
578.89	49253.98
579.10	49338.76
579.30	49907.20
579.50	49206.95
579.71	48735.10
579.91	49149.69
580.11	48762.46
580.32	48554.55
580.52	48426.76
580.72	48931.46
580.93	48096.79
581.13	48137.34
581.33	48462.31
581.54	48012.09
581.74	47988.09
581.94	47928.69
582.15	48152.66
582.35	47557.44
582.55	47518.86
582.76	47128.18
582.96	47537.20
583.16	47016.94
583.37	47237.30
583.57	46694.92
583.77	47177.09
583.97	45890.56
584.18	46812.72
584.38	46390.34
584.58	46100.92
584.79	46287.37
584.99	45975.51
585.19	45736.30
585.40	45547.64
585.60	45757.11
585.80	45352.27
586.00	45649.22
586.21	45474.41
586.41	45269.61
586.61	45329.08
586.82	44865.67
587.02	44631.55
587.22	44721.25
587.42	44031.25
587.63	44499.49
587.83	43789.50
588.03	44060.82
588.23	43619.36
588.44	43715.61
588.64	43403.99
588.84	43508.36
589.05	43443.97
589.25	43406.04
589.45	43199.03
589.65	43069.68
589.86	43169.05
590.06	43142.67
590.26	42817.62
590.46	42878.08
590.67	42285.07
590.87	42722.68
591.07	42605.61
591.27	41972.14
591.48	42239.52
591.68	41672.56
591.88	42429.49
592.08	41636.19
592.29	41916.51
592.49	41597.28
592.69	41699.27
592.89	41358.32
593.10	41317.36
593.30	41116.09
593.50	41624.88
593.70	40538.89
593.90	41258.05
594.11	40949.79
594.31	41000.09
594.51	41022.12
594.71	40900.80
594.92	40840.59
595.12	40368.66
595.32	40300.67
595.52	40567.64
595.72	39895.58
595.93	40455.90
596.13	40121.51
596.33	39846.84
596.53	40116.84
596.73	39847.74
596.94	39737.56
597.14	39824.96
597.34	39504.83
597.54	39787.20
597.74	39373.51
597.95	39504.17
598.15	39427.41
598.35	39494.26
598.55	39484.10
598.75	39222.86
598.96	39400.63
599.16	39025.44
599.36	39028.63
599.56	38886.26
599.76	38657.79
599.97	39034.78
600.17	38922.96
600.37	39051.24
600.57	38448.57
600.77	39107.60
600.97	38776.16
601.18	39255.46
601.38	38812.28
601.58	38914.44
601.78	38572.10
601.98	38412.85
602.18	38499.60
602.39	38749.04
602.59	38500.83
602.79	38251.47
602.99	38324.62
603.19	38366.24
603.39	38181.92
603.60	38276.78
603.80	38335.27
604.00	38185.85
604.20	38160.05
604.40	38415.88
604.60	38064.37
604.80	38053.96
605.01	38144.81
605.21	38004.89
605.41	37853.34
605.61	37683.12
605.81	38052.65
606.01	38300.13
606.21	37840.24
606.42	38177.91
606.62	37927.07
606.82	38307.17
607.02	37866.78
607.22	37984.17
607.42	38204.86
607.62	37783.47
607.82	37856.87
608.03	37939.19
608.23	37942.80
608.43	37862.68
608.63	38261.22
608.83	38128.59
609.03	38067.89
609.23	38059.21
609.43	38122.77
609.63	38028.32
609.84	37896.51
610.04	38367.47
610.24	38321.02
610.44	38324.87
610.64	37957.54
610.84	38164.23
611.04	38585.21
611.24	38428.90
611.44	38003.75
611.64	38352.47
611.85	38447.01
612.05	38252.21
612.25	38431.85
612.45	38174.55
612.65	38535.97
612.85	38545.64
613.05	38330.85
613.25	38721.35
613.45	38553.83
613.65	38620.43
613.85	38417.35
614.05	38703.41
614.25	38949.09
614.46	38804.99
614.66	38584.47
614.86	38604.13
615.06	38815.23
615.26	39161.59
615.46	38604.37
615.66	39166.01
615.86	39227.53
616.06	38879.21
616.26	39071.72
616.46	39639.58
616.66	39302.24
616.86	39672.43
617.06	39361.80
617.26	39751.81
617.46	39626.88
617.66	39461.65
617.86	39379.16
618.07	39777.53
618.27	39610.75
618.47	39654.90
618.67	39831.35
618.87	39956.53
619.07	39774.67
619.27	39831.76
619.47	39794.41
619.67	40221.86
619.87	39968.24
620.07	40450.17
620.27	40468.76
620.47	40315.08
620.67	40777.92
620.87	40742.62
621.07	40779.65
621.27	40737.46
621.47	40530.04
621.67	40914.81
621.87	40771.78
622.07	41227.99
622.27	41227.00
622.47	41021.22
622.67	41275.91
622.87	41181.37
623.07	41740.31
623.27	42068.64
623.47	41400.92
623.67	41809.45
623.87	42167.76
624.07	42084.04
624.27	41737.93
624.47	42026.53
624.67	42014.32
624.87	42137.37
625.07	41893.66
625.27	42523.45
625.47	42215.76
625.67	42349.86
625.87	42668.45
626.07	42672.95
626.27	42833.43
626.47	42759.62
626.67	42733.65
626.87	42687.78
627.07	43106.22
627.27	43133.58
627.47	43394.16
627.67	43268.58
627.87	43357.14
628.07	43781.97
628.27	43582.74
628.47	43515.81
628.67	44008.80
628.86	44059.51
629.06	43821.70
629.26	43761.65
629.46	44253.66
629.66	44190.00
629.86	43886.09
630.06	44405.29
630.26	44440.76
630.46	44685.78
630.66	44285.19
630.86	44463.78
631.06	44486.71
631.26	44570.85
631.46	45033.28
631.66	45091.52
631.86	44898.44
632.06	45229.80
632.26	45000.84
632.45	44946.20
632.65	45106.68
632.85	45246.59
633.05	45230.21
633.25	45562.55
633.45	45427.06
633.65	45684.37
633.85	46329.97
634.05	45562.39
634.25	45945.03
634.45	45939.95
634.65	46283.52
634.84	46018.68
635.04	46268.69
635.24	46087.24
635.44	46625.86
635.64	46459.65
635.84	46708.92
636.04	46499.46
636.24	46466.20
636.44	46610.87
636.64	46104.45
636.84	46974.75
637.03	46416.56
637.23	46700.08
637.43	46754.55
637.63	46626.60
637.83	46919.70
638.03	47070.84
638.23	46720.56
638.43	47297.59
638.62	47526.47
638.82	46548.12
639.02	47370.75
639.22	47063.55
639.42	47321.10
639.62	47121.96
639.82	47285.80
640.02	47407.45
640.21	47544.41
640.41	47015.87
640.61	47401.63
640.81	47322.74
641.01	47164.06
641.21	47157.18
641.41	47691.79
641.61	47190.69
641.80	47366.08
642.00	47606.59
642.20	47682.69
642.40	47113.52
642.60	47520.00
642.80	47718.41
642.99	47327.41
643.19	47684.49
643.39	47236.73
643.59	47580.62
643.79	47379.18
643.99	47711.04
644.19	47408.76
644.38	47092.96
644.58	47253.77
644.78	47110.41
644.98	47027.67
645.18	47176.03
645.38	47327.66
645.57	46944.52
645.77	46890.70
645.97	46683.28
646.17	46937.97
646.37	46892.09
646.56	46694.18
646.76	46845.97
646.96	46882.35
647.16	46849.33
647.36	47007.52
647.55	46793.63
647.75	46883.90
647.95	46674.27
648.15	46895.78
648.35	46669.28
648.55	46914.05
648.74	46482.66
648.94	46512.97
649.14	46852.28
649.34	46494.05
649.54	46446.21
649.73	46632.90
649.93	46154.74
650.13	46153.60
650.33	45821.09
650.52	46022.45
650.72	46227.00
650.92	45727.95
651.12	45587.54
651.32	45750.72
651.51	45787.01
651.71	45914.64
651.91	45625.39
652.11	45468.51
652.30	45397.41
652.50	45758.42
652.70	45596.96
652.90	45197.61
653.10	45284.28
653.29	44905.24
653.49	45235.21
653.69	44760.16
653.89	44774.41
654.08	44477.13
654.28	44835.44
654.48	44438.30
654.68	44558.72
654.87	44117.92
655.07	43969.56
655.27	44164.45
655.47	43756.65
655.66	43651.72
655.86	43313.31
656.06	43857.91
656.26	43024.22
656.45	43270.47
656.65	43066.16
656.85	42964.91
657.04	42528.12
657.24	42555.56
657.44	42395.08
657.64	42622.49
657.83	41724.58
658.03	42313.00
658.23	42096.65
658.43	41971.73
658.62	41987.21
658.82	41682.31
659.02	41607.19
659.21	41598.59
659.41	41354.71
659.61	41698.53
659.81	41309.99
660.00	41004.76
660.20	41060.14
660.40	40631.70
660.59	40764.74
660.79	40204.82
660.99	40597.70
661.19	40472.61
661.38	40391.68
661.58	39742.14
661.78	40033.37
661.97	39875.59
662.17	40462.46
662.37	39899.84
662.56	39823.57
662.76	39657.93
662.96	39677.59
663.15	39501.71
663.35	39452.56
663.55	39108.99
663.74	38671.30
663.94	38883.47
664.14	38524.50
664.33	38743.64
664.53	38518.77
664.73	38769.36
664.93	38075.18
665.12	38203.05
665.32	37896.35
665.52	37858.59
665.71	37575.39
665.91	37678.20
666.10	37353.48
666.30	37534.19
666.50	37158.43
666.69	37052.67
666.89	37276.55
667.09	37333.08
667.28	36940.36
667.48	36761.12
667.68	36732.78
667.87	36636.28
668.07	36379.71
668.27	36533.39
668.46	36477.03
668.66	36211.45
668.86	36426.16
669.05	35954.88
669.25	36141.90
669.44	35770.31
669.64	35655.71
669.84	35568.96
670.03	35808.65
670.23	35359.98
670.43	35279.95
670.62	35159.61
670.82	34967.10
671.01	35118.57
671.21	34738.55
671.41	34772.71
671.60	34915.98
671.80	34888.70
672.00	34620.17
672.19	34792.20
672.39	34571.02
672.58	34371.63
672.78	34156.35
672.98	34438.64
673.17	34197.88
673.37	33646.65
673.56	33846.29
673.76	33879.79
673.96	33975.31
674.15	33728.90
674.35	33796.24
674.54	33620.11
674.74	33561.95
674.94	33445.71
675.13	33610.28
675.33	33027.18
675.52	33274.90
675.72	33110.17
675.91	32949.11
676.11	32954.68
676.31	32549.43
676.50	32631.27
676.70	32586.30
676.89	32571.39
677.09	32607.10
677.28	32427.21
677.48	31971.33
677.68	32129.68
677.87	31949.05
678.07	31758.67
678.26	31789.55
678.46	31759.49
678.65	31712.71
678.85	31895.23
679.04	31464.17
679.24	31575.50
679.44	31423.38
679.63	31497.60
679.83	31278.46
680.02	31338.92
680.22	31083.66
680.41	31263.88
680.61	31198.67
680.80	31045.57
681.00	31167.87
681.19	31095.21
681.39	30958.98
681.59	30899.10
681.78	30647.85
681.98	30873.87
682.17	30379.00
682.37	30553.07
682.56	30276.84
682.76	30508.51
682.95	30270.86
683.15	30424.79
683.34	30280.20
683.54	30427.65
683.73	30546.03
683.93	30216.22
684.12	30422.33
684.32	30396.85
684.51	29873.39
684.71	30049.44
684.90	29966.53
685.10	29917.96
685.29	29833.50
685.49	29984.15
685.68	29917.14
685.88	29860.45
686.07	29645.33
686.27	29870.12
686.46	29763.62
686.66	29528.68
686.85	29649.02
687.05	29321.75
687.24	29271.95
687.44	29428.16
687.63	29398.43
687.83	28957.46
688.02	29228.61
688.22	29212.80
688.41	29035.53
688.61	29033.07
688.80	29158.73
689.00	28919.45
689.19	28723.09
689.39	29076.73
689.58	28982.03
689.77	28899.05
689.97	28945.50
690.16	28817.30
690.36	28420.73
690.55	28483.48
690.75	28792.64
690.94	28472.34
691.14	28633.31
691.33	28349.46
691.53	28579.32
691.72	28351.26
691.91	28322.59
692.11	28377.23
692.30	28483.15
692.50	28539.18
692.69	28192.91
692.89	28224.70
693.08	28284.25
693.28	28310.71
693.47	28296.37
693.66	28358.55
693.86	28197.91
694.05	28174.48
694.25	28135.98
694.44	28202.09
694.64	28161.62
694.83	28008.35
695.02	27985.33
695.22	28084.04
695.41	27953.87
695.61	27922.50
695.80	27998.03
695.99	27961.41
696.19	28000.65
696.38	28012.36
696.58	27771.77
696.77	28166.45
696.96	28040.46
697.16	27932.08
697.35	27875.64
697.55	27872.20
697.74	27766.44
697.93	28054.14
698.13	27738.92
698.32	27864.99
698.52	27773.98
698.71	27537.40
698.90	27946.34
699.10	27713.93
699.29	27789.13
699.49	27911.44
699.68	27752.19
699.87	27605.23
700.07	27843.86
700.26	27704.59
700.45	27731.79
700.65	27678.13
700.84	28042.67
701.04	27815.35
701.23	27982.05
701.42	27820.18
701.62	27681.49
701.81	27727.04
702.00	27694.76
702.20	27411.57
702.39	27447.94
702.58	27599.66
702.78	27388.22
702.97	27386.09
703.17	27450.89
703.36	27496.44
703.55	27363.89
703.75	27349.23
703.94	27477.27
704.13	27272.80
704.33	27361.27
704.52	27546.41
704.71	27457.12
704.91	27400.76
705.10	27377.66
705.29	27448.02
705.49	27529.12
705.68	27578.93
705.87	27562.55
706.07	27369.79
706.26	27624.72
706.45	27312.78
706.65	27272.31
706.84	27623.58
707.03	27738.10
707.23	27331.45
707.42	27265.51
707.61	27578.68
707.80	27287.55
708.00	27355.54
708.19	27311.22
708.38	27667.07
708.58	27222.83
708.77	27617.10
708.96	27263.38
709.16	27223.57
709.35	27720.49
709.54	27500.37
709.74	27436.15
709.93	27298.52
710.12	27654.30
710.31	27805.60
710.51	27564.43
710.70	27559.02
710.89	27695.42
711.09	27360.21
711.28	27354.80
711.47	27587.61
711.66	27493.49
711.86	27462.44
712.05	27610.88
712.24	27662.24
712.43	27421.40
712.63	27226.93
712.82	27608.26
713.01	27477.68
713.21	27334.16
713.40	27492.18
713.59	27680.84
713.78	27246.75
713.98	27541.49
714.17	27482.02
714.36	27587.04
714.55	27454.74
714.75	27674.45
714.94	27761.85
715.13	27876.87
715.32	27598.84
715.52	27722.37
715.71	27640.70
715.90	27660.11
716.09	27528.63
716.29	27832.39
716.48	27609.24
716.67	27342.92
716.86	27482.51
717.06	27495.29
717.25	27684.20
717.44	27745.14
717.63	27770.54
717.82	27524.37
718.02	27546.74
718.21	27806.34
718.40	27847.21
718.59	27841.07
718.79	27790.36
718.98	27910.78
719.17	28137.94
719.36	28199.14
719.55	27888.17
719.75	27744.08
719.94	27672.40
720.13	27873.35
720.32	27754.65
720.51	27601.38
720.71	27735.15
720.90	27526.26
721.09	27924.87
721.28	27725.97
721.47	28034.40
721.67	27803.55
721.86	27825.18
722.05	27766.61
722.24	27482.92
722.43	27861.47
722.63	27603.26
722.82	27800.85
723.01	27846.72
723.20	27649.05
723.39	27649.22
723.58	27878.43
723.78	27586.96
723.97	27970.99
724.16	27803.06
724.35	27904.72
724.54	27717.13
724.73	27947.48
724.93	27774.14
725.12	28061.76
725.31	27542.15
725.50	27818.62
725.69	27897.68
725.88	27752.19
726.08	27618.99
726.27	27905.87
726.46	27534.69
726.65	28118.69
726.84	27702.63
727.03	27815.59
727.23	28079.45
727.42	27865.73
727.61	27843.61
727.80	27849.02
727.99	28038.49
728.18	28101.24
728.37	27798.31
728.56	27775.78
728.76	27554.11
728.95	27751.04
729.14	27699.68
729.33	27673.55
729.52	27808.14
729.71	27877.20
729.90	27947.32
730.09	27776.52
730.29	28000.57
730.48	27675.10
730.67	27967.31
730.86	27757.84
731.05	28019.41
731.24	27762.84
731.43	27820.51
731.62	27634.72
731.81	27615.47
732.01	28055.62
732.20	27706.48
732.39	27795.28
732.58	27780.53
732.77	27406.00
732.96	27689.93
733.15	27764.15
733.34	27533.30
733.53	27681.33
733.72	27779.88
733.92	27742.52
734.11	27776.19
734.30	27733.43
734.49	27873.51
734.68	27641.43
734.87	27492.34
735.06	27580.65
735.25	27641.27
735.44	27600.39
735.63	27656.18
735.82	27750.47
736.01	27705.99
736.20	27624.64
736.40	27819.12
736.59	27740.88
736.78	27787.50
736.97	27415.91
737.16	27570.57
737.35	27518.31
737.54	27594.00
737.73	27471.21
737.92	27690.83
738.11	27658.06
738.30	27558.29
738.49	27539.04
738.68	27473.50
738.87	27607.68
739.06	27350.62
739.25	27365.53
739.44	27309.75
739.63	27151.56
739.82	26977.16
740.01	27216.93
740.20	27062.92
740.39	27151.89
740.59	27197.35
740.78	27301.88
740.97	27194.73
741.16	27066.77
741.35	27250.85
741.54	27171.14
741.73	27168.03
741.92	27079.80
742.11	27082.34
742.30	27067.59
742.49	26847.97
742.68	27005.42
742.87	27002.63
743.06	26711.00
743.25	26830.03
743.44	26715.34
743.63	26949.55
743.82	26746.96
744.01	26711.16
744.20	26565.35
744.39	26824.29
744.58	26657.59
744.77	26449.84
744.96	26241.61
745.15	26503.75
745.34	26219.73
745.53	26382.34
745.72	26026.73
745.91	26138.80
746.10	26098.66
746.29	26304.27
746.48	26215.97
746.67	26237.92
746.86	26233.09
747.04	26149.37
747.23	26096.36
747.42	26224.90
747.61	25948.50
747.80	26290.35
747.99	25693.49
748.18	25910.98
748.37	25804.24
748.56	25476.40
748.75	25710.20
748.94	25631.72
749.13	25683.74
749.32	25463.13
749.51	25604.28
749.70	25575.36
749.89	25366.88
750.08	25518.67
750.27	25232.53
750.46	25391.70
750.65	25668.58
750.84	25337.63
751.02	25399.15
751.21	25223.68
751.40	25208.20
751.59	25241.62
751.78	25091.39
751.97	25154.79
752.16	25008.89
752.35	25177.56
752.54	24843.50
752.73	24962.61
752.92	24793.45
753.11	24787.14
753.30	24924.68
753.49	24901.99
753.67	24737.25
753.86	24533.44
754.05	24638.95
754.24	24448.41
754.43	24430.38
754.62	24467.25
754.81	24181.27
755.00	24220.34
755.19	24149.40
755.38	23887.75
755.56	24071.01
755.75	24227.22
755.94	23941.82
756.13	23946.33
756.32	23955.09
756.51	23844.91
756.70	23903.56
756.89	23784.04
757.08	23719.66
757.26	23736.78
757.45	23764.88
757.64	23563.19
757.83	23813.70
758.02	23618.16
758.21	23585.80
758.40	23652.40
758.59	23509.70
758.77	23292.12
758.96	23339.88
759.15	23391.57
759.34	23168.26
759.53	23188.00
759.72	23109.85
759.91	22920.70
760.09	22997.54
760.28	23045.87
760.47	22805.85
760.66	22899.98
760.85	22538.96
761.04	22754.24
761.23	22623.09
761.41	22547.64
761.60	22613.34
761.79	22435.25
761.98	22406.01
762.17	22629.32
762.36	22412.64
762.54	22598.02
762.73	22466.54
762.92	22260.19
763.11	22394.21
763.30	22421.49
763.49	22262.73
763.67	22130.19
763.86	22091.28
764.05	22069.73
764.24	21954.80
764.43	22100.61
764.61	21803.00
764.80	21794.89
764.99	22056.30
765.18	21648.34
765.37	21836.10
765.55	21740.91
765.74	21651.29
765.93	21420.85
766.12	21624.83
766.31	21568.80
766.49	21508.75
766.68	21455.18
766.87	21469.02
767.06	21353.51
767.25	21344.75
767.43	21343.27
767.62	21197.38
767.81	21335.66
768.00	21069.26
768.19	20933.52
768.37	21019.45
768.56	20924.51
768.75	20965.63
768.94	20896.82
769.12	20696.03
769.31	20686.61
769.50	20605.43
769.69	20710.53
769.88	20478.05
770.06	20823.83
770.25	20580.04
770.44	20440.78
770.63	20513.68
770.81	20400.14
771.00	20262.44
771.19	20298.89
771.38	20287.18
771.56	20348.37
771.75	20099.09
771.94	20255.31
772.13	20127.52
772.31	20015.45
772.50	20201.00
772.69	20036.43
772.88	20242.29
773.06	19919.12
773.25	20043.80
773.44	20049.45
773.62	19821.96
773.81	19825.40
774.00	19713.26
774.19	19734.88
774.37	19621.42
774.56	19794.60
774.75	19429.82
774.94	19623.64
775.12	19424.66
775.31	19416.38
775.50	19460.21
775.68	19350.93
775.87	19375.83
776.06	19245.58
776.25	19365.26
776.43	19127.95
776.62	19300.47
776.81	19056.92
776.99	19135.97
777.18	19059.46
777.37	18796.91
777.55	18922.25
777.74	18875.06
777.93	18864.41
778.12	18881.94
778.30	18790.77
778.49	18783.48
778.68	18869.41
778.86	18729.90
779.05	18828.12
779.24	18761.69
779.42	18726.30
779.61	18634.63
779.80	18597.03
779.98	18607.60
780.17	18584.91
780.36	18313.18
780.54	18485.29
780.73	18116.82
780.92	18372.25
781.10	18280.99
781.29	18181.54
781.48	18138.94
781.66	18116.41
781.85	18192.76
782.04	17991.49
782.22	18112.07
782.41	17959.78
782.60	18050.63
782.78	18014.34
782.97	18052.35
783.16	17772.85
783.34	17746.30
783.53	17808.15
783.71	17733.77
783.90	17685.93
784.09	17696.83
784.27	17758.59
784.46	17722.88
784.65	17758.59
784.83	17696.25
785.02	17679.95
785.20	17799.14
785.39	17518.00
785.58	17698.55
785.76	17612.61
785.95	17581.48
786.14	17598.28
786.32	17574.60
786.51	17429.85
786.69	17512.75
786.88	17390.94
787.07	17364.81
787.25	17345.07
787.44	17369.56
787.62	17274.78
787.81	17392.25
788.00	17420.10
788.18	17365.05
788.37	17349.98
788.55	17664.39
788.74	17510.62
788.93	17641.94
789.11	17720.66
789.30	17682.24
789.48	17568.95
789.67	17663.57
789.86	17586.24
790.04	17610.81
790.23	17501.45
790.41	17357.76
790.60	17466.31
790.78	17377.26
790.97	17213.10
791.16	17314.02
791.34	17432.06
791.53	17206.62
791.71	17390.45
791.90	17191.47
792.08	17181.88
792.27	17160.67
792.46	17061.87
792.64	17169.84
792.83	17063.43
793.01	17152.80
793.20	17053.76
793.38	17093.41
793.57	17133.22
793.75	17083.09
793.94	17149.69
794.12	17241.69
794.31	17114.38
794.50	17265.93
794.68	17252.42
794.87	17223.42
795.05	17277.48
795.24	17206.95
795.42	17079.98
795.61	17322.62
795.79	17269.54
795.98	17081.62
796.16	17214.90
796.35	17180.57
796.53	17055.32
796.72	17188.77
796.90	17207.77
797.09	17201.14
797.27	17156.82
797.46	17129.21
797.64	17147.97
797.83	17088.74
798.01	17158.95
798.20	17243.41
798.38	17126.75
798.57	17294.44
798.75	17180.57
798.94	16966.11
799.12	17330.81
799.31	17102.42
799.49	17211.21
799.68	17076.54
799.86	17188.52
800.05	17110.04
800.23	17189.42
800.42	17084.81
800.60	17319.02
800.79	17077.85
800.97	17223.91
801.16	17296.32
801.34	17097.43
801.53	17084.07
801.71	17156.00
801.90	16948.58
802.08	17130.93
802.27	17062.28
802.45	16843.15
802.64	16936.05
802.82	16920.89
803.00	16736.90
803.19	16807.27
803.37	16912.95
803.56	16741.90
803.74	16780.24
803.93	16799.00
804.11	16789.33
804.30	16766.47
804.48	16876.74
804.67	16865.68
804.85	16818.90
805.03	16964.72
805.22	16781.79
805.40	16698.40
805.59	16865.35
805.77	16874.53
805.96	16737.56
806.14	16709.46
806.32	16785.64
806.51	16845.20
806.69	16666.12
806.88	16574.13
807.06	16575.85
807.25	16626.39
807.43	16596.49
807.61	16705.44
807.80	16692.58
807.98	16792.44
808.17	16667.11
808.35	16640.65
808.53	16688.90
808.72	16636.72
808.90	16632.95
809.09	16671.94
809.27	16660.80
809.45	16523.09
809.64	16661.70
809.82	16579.21
810.01	16554.47
810.19	16481.32
810.37	16415.12
810.56	16396.53
810.74	16498.85
810.93	16361.47
811.11	16398.00
811.29	16359.42
811.48	16480.82
811.66	16426.84
811.84	16403.90
812.03	16382.28
812.21	16332.63
812.40	16427.66
812.58	16457.80
812.76	16249.65
812.95	16456.66
813.13	16244.57
813.31	16334.11
813.50	16312.07
813.68	16267.51
813.86	16373.76
814.05	16455.59
814.23	16202.55
814.42	16403.49
814.60	16309.37
814.78	16393.42
814.97	16391.86
815.15	16420.45
815.33	16476.65
815.52	16292.41
815.70	16295.77
815.88	16278.98
816.07	16055.34
816.25	16136.52
816.43	16095.56
816.62	15936.64
816.80	16025.52
816.98	16010.04
817.17	16063.37
817.35	16035.68
817.53	16103.34
817.72	16134.39
817.90	16068.69
818.08	16034.61
818.26	16157.24
818.45	16042.23
818.63	16077.46
818.81	16132.42
819.00	15935.98
819.18	16073.28
819.36	16085.57
819.55	16092.61
819.73	15964.16
819.91	16091.71
820.09	15982.02
820.28	16060.66
820.46	15866.60
820.64	16098.43
820.83	15884.29
821.01	15946.80
821.19	15923.12
821.38	15985.62
821.56	15950.48
821.74	16032.24
821.92	15975.88
822.11	16110.55
822.29	15884.46
822.47	15882.16
822.65	15915.09
822.84	15958.51
823.02	15778.12
823.20	16061.40
823.39	15934.84
823.57	16010.86
823.75	16008.56
823.93	15898.87
824.12	15960.89
824.30	15868.32
824.48	15858.98
824.66	16033.06
824.85	15660.00
825.03	15863.65
825.21	15849.97
825.39	15854.15
825.58	15860.86
825.76	15855.05
825.94	15857.26
826.12	15844.23
826.31	15825.88
826.49	15854.39
826.67	15814.91
826.85	15773.62
827.03	15859.14
827.22	15858.16
827.40	15774.85
827.58	15813.19
827.76	15890.84
827.95	15855.78
828.13	15838.33
828.31	15849.97
828.49	15972.76
828.67	15893.47
828.86	15873.81
829.04	15940.82
829.22	15883.14
829.40	15915.99
829.58	15892.89
829.77	15858.16
829.95	15807.21
830.13	15823.34
830.31	15762.64
830.49	15755.02
830.68	15740.36
830.86	15635.18
831.04	15661.55
831.22	15684.49
831.40	15726.84
831.59	15797.46
831.77	15710.30
831.95	15805.24
832.13	15617.07
832.31	15775.67
832.50	15706.12
832.68	15647.87
832.86	15654.26
833.04	15808.35
833.22	15628.62
833.40	15887.40
833.59	15689.49
833.77	15848.74
833.95	15566.04
834.13	16003.89
834.31	15841.28
834.49	15818.59
834.67	15820.56
834.86	15780.66
835.04	15787.14
835.22	15800.65
835.40	15765.67
835.58	15755.84
835.76	15870.53
835.95	15889.70
836.13	15768.05
836.31	15735.28
836.49	15820.15
836.67	15776.90
836.85	15674.33
837.03	15723.16
837.21	15756.66
837.40	15699.24
837.58	15598.56
837.76	15699.16
837.94	15641.32
838.12	15770.83
838.30	15657.21
838.48	15696.86
838.66	15649.27
838.85	15599.46
839.03	15615.68
839.21	15600.85
839.39	15514.84
839.57	15549.16
839.75	15529.09
839.93	15591.60
840.11	15684.90
840.29	15623.63
840.47	15694.57
840.66	15685.97
840.84	15708.25
841.02	15633.05
841.20	15635.42
841.38	15605.69
841.56	15641.32
841.74	15745.77
841.92	15550.23
842.10	15553.99
842.28	15596.67
842.46	15531.30
842.65	15475.76
842.83	15647.71
843.01	15622.81
843.19	15495.34
843.37	15564.97
843.55	15563.25
843.73	15678.43
843.91	15691.62
844.09	15621.00
844.27	15794.92
844.45	15653.12
844.63	15608.72
844.81	15669.01
844.99	15679.49
845.17	15675.89
845.35	15780.83
845.54	15614.29
845.72	15702.10
845.90	15647.22
846.08	15647.79
846.26	15479.69
846.44	15616.58
846.62	15456.18
846.80	15549.90
846.98	15570.21
847.16	15570.54
847.34	15597.66
847.52	15593.48
847.70	15506.15
847.88	15632.39
848.06	15546.46
848.24	15606.83
848.42	15630.10
848.60	15523.44
848.78	15671.79
848.96	15693.01
849.14	15666.14
849.32	15833.34
849.50	15705.14
849.68	15860.94
849.86	15837.60
850.04	15703.09
850.22	15728.97
850.40	15646.48
850.58	15747.98
850.76	15968.01
850.94	15454.79
851.12	15636.16
851.30	15556.78
851.48	15680.89
851.66	15540.81
851.84	15607.82
852.02	15580.45
852.20	15709.64
852.38	15674.17
852.56	15754.86
852.74	15772.88
852.92	15683.84
853.10	15615.19
853.28	15684.66
853.46	15370.58
853.64	15627.97
853.82	15462.16
854.00	15493.54
854.18	15421.12
854.36	15373.12
854.54	15510.50
854.72	15342.56
854.90	15354.03
855.07	15437.67
855.25	15410.06
855.43	15494.28
855.61	15438.57
855.79	15384.42
855.97	15458.56
856.15	15453.73
856.33	15398.43
856.51	15529.26
856.69	15378.44
856.87	15533.27
857.05	15397.37
857.23	15427.51
857.41	15283.91
857.59	15316.18
857.77	15298.65
857.94	15313.32
858.12	15341.01
858.30	15287.92
858.48	15228.29
858.66	15231.40
858.84	15369.68
859.02	15279.73
859.20	15276.54
859.38	15443.16
859.56	15427.68
859.74	15431.12
859.92	15512.63
860.09	15409.98
860.27	15489.61
860.45	15372.14
860.63	15374.10
860.81	15427.43
860.99	15319.46
861.17	15163.41
861.35	15012.10
861.53	14910.28
861.70	14888.49
861.88	15160.29
862.06	15152.43
862.24	14937.47
862.42	14940.83
862.60	15098.44
862.78	15104.51
862.96	15210.35
863.14	15030.04
863.31	15051.51
863.49	14959.84
863.67	14918.14
863.85	15012.43
864.03	15072.56
864.21	15065.19
864.39	15044.95
864.56	14979.66
864.74	15062.81
864.92	14972.70
865.10	14977.21
865.28	14995.88
865.46	15161.28
865.64	14851.21
865.81	15052.16
865.99	14867.43
866.17	15078.13
866.35	14899.14
866.53	15003.01
866.71	15027.59
866.88	15044.54
867.06	14825.90
867.24	14926.66
867.42	14827.79
867.60	14957.71
867.78	14865.88
867.95	15048.80
868.13	14893.89
868.31	15008.09
868.49	14923.79
868.67	14918.47
868.84	14801.41
869.02	14885.95
869.20	14661.74
869.38	14893.81
869.56	14832.70
869.73	14704.99
869.91	14753.65
870.09	14716.05
870.27	14610.37
870.45	14664.52
870.62	14587.52
870.80	14722.36
870.98	14670.99
871.16	14720.96
871.34	14709.17
871.51	14755.29
871.69	14542.87
871.87	14684.92
872.05	14623.07
872.23	14619.55
872.40	14482.42
872.58	14641.99
872.76	14535.09
872.94	14542.05
873.11	14470.78
873.29	14477.99
873.47	14518.46
873.65	14462.76
873.83	14453.17
874.00	14435.07
874.18	14452.84
874.36	14411.97
874.54	14451.70
874.71	14397.63
874.89	14303.59
875.07	14378.46
875.25	14288.51
875.42	14319.15
875.60	14336.60
875.78	14376.74
875.96	14144.42
876.13	14217.16
876.31	14019.90
876.49	14037.84
876.66	13930.37
876.84	14123.28
877.02	13988.77
877.20	14079.62
877.37	14096.74
877.55	14078.88
877.73	14044.40
877.91	13994.84
878.08	14126.32
878.26	14125.17
878.44	14072.41
878.61	14173.09
878.79	14078.31
878.97	14041.20
879.15	14206.68
879.32	14140.16
879.50	14125.82
879.68	14231.66
879.85	14009.99
880.03	14126.40
880.21	13957.81
880.38	14079.46
880.56	13961.82
880.74	14098.54
880.92	13856.15
881.09	13966.98
881.27	13880.15
881.45	13948.14
881.62	13885.56
881.80	13824.12
881.98	13835.99
882.15	13965.02
882.33	13893.50
882.51	13993.61
882.68	13924.88
882.86	14078.80
883.04	13938.64
883.21	13913.00
883.39	14018.51
883.57	13878.27
883.74	13871.22
883.92	13894.98
884.10	13855.66
884.27	13879.66
884.45	13772.26
884.63	13949.12
884.80	13877.53
884.98	13879.90
885.16	13830.83
885.33	13876.95
885.51	13877.04
885.69	13882.93
885.86	13823.05
886.04	13864.91
886.21	13682.32
886.39	13846.07
886.57	13693.70
886.74	13871.63
886.92	13853.53
887.10	13899.24
887.27	13894.89
887.45	13918.73
887.62	13918.49
887.80	13894.08
887.98	14003.19
888.15	13930.04
888.33	13868.35
888.51	13971.65
888.68	13854.26
888.86	13881.30
889.03	13815.43
889.21	13851.23
889.39	13864.01
889.56	13859.18
889.74	13814.12
889.91	13771.52
890.09	13757.03
890.27	13782.26
890.44	13796.43
890.62	13758.99
890.79	13789.30
890.97	13751.13
891.14	13738.76
891.32	13819.37
891.50	13749.00
891.67	13878.84
891.85	13827.48
892.02	13787.17
892.20	13960.10
892.38	13847.96
892.55	13801.26
892.73	13888.83
892.90	13733.92
893.08	13843.37
893.25	13782.09
893.43	13926.52
893.60	13705.25
893.78	13840.42
893.96	13767.02
894.13	13855.16
894.31	13890.80
894.48	13810.35
894.66	13851.97
894.83	13851.07
895.01	13936.92
895.18	13933.64
895.36	13866.06
895.53	14060.70
895.71	13934.13
895.89	13955.02
896.06	13895.39
896.24	13935.85
896.41	13894.40
896.59	13966.98
896.76	13682.40
896.94	13787.25
897.11	13711.97
897.29	13744.74
897.46	13584.59
897.64	13641.44
897.81	13581.23
897.99	13451.55
898.16	13677.07
898.34	13605.64
898.51	13536.83
898.69	13537.65
898.86	13555.34
899.04	13588.93
899.21	13583.52
899.39	13662.98
899.56	13588.85
899.74	13783.16
899.91	13604.74
900.09	13567.96
900.26	13587.86
900.44	13446.64
900.61	13469.24
900.79	13564.60
900.96	13433.77
901.14	13471.46
901.31	13350.63
901.49	13333.51
901.66	13337.85
901.84	13300.33
902.01	13163.28
902.19	13244.62
902.36	13201.94
902.54	13254.13
902.71	13215.13
902.88	13242.66
903.06	13071.28
903.23	13307.05
903.41	13123.79
903.58	13117.90
903.76	13049.41
903.93	13215.38
904.11	13222.34
904.28	13141.41
904.45	13079.39
904.63	13021.97
904.80	12896.22
904.98	12980.76
905.15	12857.15
905.33	12939.07
905.50	12817.42
905.68	12877.14
905.85	12731.98
906.02	12705.93
906.20	12791.37
906.37	12647.85
906.55	12521.61
906.72	12725.83
906.90	12557.49
907.07	12481.30
907.24	12541.35
907.42	12476.47
907.59	12462.22
907.77	12434.45
907.94	12451.08
908.11	12465.66
908.29	12392.34
908.46	12406.59
908.64	12347.04
908.81	12419.37
908.98	12345.81
909.16	12455.99
909.33	12315.66
909.51	12347.45
909.68	12296.82
909.85	12292.81
910.03	12202.21
910.20	12193.52
910.37	12145.77
910.55	12167.72
910.72	12152.24
910.90	12023.21
911.07	12046.48
911.24	11976.77
911.42	12066.55
911.59	11899.11
911.76	11854.13
911.94	11812.36
912.11	11829.89
912.29	11755.59
912.46	11660.15
912.63	11649.83
912.81	11571.35
912.98	11684.89
913.15	11509.58
913.33	11589.37
913.50	11534.57
913.67	11490.50
913.85	11447.74
914.02	11508.52
914.19	11423.49
914.37	11373.03
914.54	11355.90
914.71	11349.35
914.89	11319.53
915.06	11317.08
915.23	11285.70
915.41	11230.81
915.58	11189.20
915.75	11127.76
915.93	11135.30
916.10	11079.43
916.27	11041.17
916.45	10976.29
916.62	10909.37
916.79	10930.75
916.97	10831.95
917.14	10793.78
917.31	10719.81
917.49	10763.22
917.66	10747.33
917.83	10679.75
918.00	10694.00
918.18	10656.15
918.35	10638.54
918.52	10699.65
918.70	10653.78
918.87	10625.19
919.04	10639.53
919.21	10635.10
919.39	10479.62
919.56	10511.65
919.73	10412.36
919.91	10434.97
920.08	10362.80
920.25	10277.61
920.42	10317.67
920.60	10210.84
920.77	10176.27
920.94	10239.43
921.11	10135.73
921.29	10159.65
921.46	10048.89
921.63	10172.10
921.81	10036.44
921.98	10042.01
922.15	9968.77
922.32	10028.90
922.50	9975.00
922.67	9950.59
922.84	9943.95
923.01	9890.38
923.19	9854.58
923.36	9861.95
923.53	9692.05
923.70	9785.77
923.87	9698.93
924.05	9691.40
924.22	9612.18
924.39	9616.03
924.56	9536.57
924.74	9546.89
924.91	9571.80
925.08	9497.58
925.25	9486.85
925.43	9482.10
925.60	9413.28
925.77	9506.34
925.94	9395.59
926.11	9431.63
926.29	9347.26
926.46	9378.06
926.63	9307.36
926.80	9293.93
926.97	9218.15
927.15	9273.12
927.32	9201.20
927.49	9199.31
927.66	9169.49
927.83	9181.45
928.01	9104.37
928.18	9068.90
928.35	9031.05
928.52	9097.32
928.69	8962.57
928.87	8977.31
929.04	8965.60
929.21	8960.52
929.38	8904.65
929.55	8934.06
929.72	8829.37
929.90	8827.07
930.07	8830.35
930.24	8773.33
930.41	8747.20
930.58	8721.15
930.75	8744.01
930.93	8695.68
931.10	8622.11
931.27	8539.70
931.44	8566.82
931.61	8524.55
931.78	8545.85
931.95	8492.68
932.13	8461.22
932.30	8489.08
932.47	8393.07
932.64	8470.40
932.81	8417.97
932.98	8415.92
933.15	8398.39
933.33	8331.22
933.50	8377.42
933.67	8277.64
933.84	8296.57
934.01	8298.70
934.18	8264.86
934.35	8247.83
934.52	8192.04
934.70	8208.67
934.87	8151.49
935.04	8138.63
935.21	8092.84
935.38	8093.16
935.55	8028.45
935.72	8137.07
935.89	8016.16
936.06	8052.04
936.24	7947.59
936.41	8028.04
936.58	7932.52
936.75	7929.00
936.92	7918.35
937.09	7939.65
937.26	7828.16
937.43	7869.12
937.60	7870.51
937.77	7828.40
937.94	7810.13
938.12	7778.43
938.29	7765.24
938.46	7769.83
938.63	7717.89
938.80	7803.09
938.97	7696.43
939.14	7664.48
939.31	7663.91
939.48	7660.88
939.65	7598.46
939.82	7589.12
939.99	7543.98
940.16	7554.96
940.33	7480.74
940.50	7503.18
940.67	7449.12
940.85	7494.83
941.02	7454.52
941.19	7466.98
941.36	7406.77
941.53	7446.99
941.70	7466.40
941.87	7377.93
942.04	7400.79
942.21	7411.84
942.38	7378.83
942.55	7341.72
942.72	7350.08
942.89	7334.68
943.06	7252.51
943.23	7237.85
943.40	7237.03
943.57	7215.49
943.74	7214.83
943.91	7222.86
944.08	7201.56
944.25	7204.75
944.42	7109.56
944.59	7130.04
944.76	7130.21
944.93	7086.95
945.10	7061.15
945.27	7057.30
945.44	6982.67
945.61	7005.04
945.78	6918.20
945.95	6972.76
946.12	6892.23
946.29	6955.48
946.46	6895.92
946.63	6872.41
946.80	6893.71
946.97	6850.05
947.14	6819.57
947.31	6889.69
947.48	6800.65
947.65	6790.00
947.82	6788.61
947.99	6808.02
948.16	6768.70
948.33	6826.54
948.50	6730.61
948.67	6734.05
948.84	6733.64
949.01	6692.60
949.18	6712.34
949.35	6748.38
949.52	6659.50
949.68	6711.03
949.85	6653.85
950.02	6676.62
950.19	6642.96
950.36	6606.91
950.53	6608.71
950.70	6570.38
950.87	6522.45
951.04	6574.55
951.21	6460.52
951.38	6472.48
951.55	6483.54
951.72	6474.37
951.89	6442.75
952.06	6498.20
952.23	6425.62
952.39	6421.86
952.56	6381.63
952.73	6417.51
952.90	6345.18
953.07	6398.35
953.24	6351.49
953.41	6370.82
953.58	6301.03
953.75	6370.90
953.92	6287.02
954.09	6307.17
954.25	6266.37
954.42	6265.80
954.59	6228.04
954.76	6228.04
954.93	6233.61
955.10	6234.34
955.27	6196.42
955.44	6214.93
955.61	6165.29
955.77	6196.58
955.94	6152.67
956.11	6155.95
956.28	6154.97
956.45	6111.38
956.62	6130.80
956.79	6106.72
956.96	6070.51
957.12	6087.14
957.29	6063.63
957.46	6018.00
957.63	6012.43
957.80	5986.54
957.97	6000.55
958.14	6037.17
958.30	5956.48
958.47	5984.16
958.64	5985.88
958.81	5984.41
958.98	5953.04
959.15	5966.31
959.32	5950.50
959.48	5968.11
959.65	5936.16
959.82	5936.98
959.99	5906.67
960.16	5943.86
960.33	5877.75
960.49	5839.41
960.66	5843.51
960.83	5827.45
961.00	5822.95
961.17	5823.52
961.33	5765.77
961.50	5778.63
961.67	5759.79
961.84	5771.83
962.01	5741.77
962.18	5749.22
962.34	5722.02
962.51	5746.03
962.68	5685.98
962.85	5743.73
963.02	5648.13
963.18	5678.28
963.35	5645.35
963.52	5660.01
963.69	5651.41
963.86	5649.44
964.02	5620.53
964.19	5633.47
964.36	5618.23
964.53	5620.28
964.69	5577.27
964.86	5620.61
965.03	5551.22
965.20	5592.18
965.37	5524.76
965.53	5515.75
965.70	5526.57
965.87	5547.78
966.04	5485.12
966.20	5498.71
966.37	5467.75
966.54	5430.97
966.71	5455.71
966.87	5413.35
967.04	5424.58
967.21	5432.44
967.38	5422.20
967.54	5443.34
967.71	5402.38
967.88	5403.77
968.05	5371.49
968.21	5357.40
968.38	5336.19
968.55	5332.83
968.72	5318.74
968.88	5306.53
969.05	5336.35
969.22	5327.42
969.39	5297.44
969.55	5341.18
969.72	5265.90
969.89	5285.56
970.05	5325.62
970.22	5309.24
970.39	5289.58
970.56	5303.09
970.72	5285.89
970.89	5294.08
971.06	5279.50
971.22	5277.29
971.39	5268.11
971.56	5276.30
971.73	5230.76
971.89	5251.57
972.06	5211.75
972.23	5237.23
972.39	5214.46
972.56	5209.38
972.73	5161.29
972.89	5183.49
973.06	5181.77
973.23	5196.84
973.39	5133.27
973.56	5155.88
973.73	5134.01
973.89	5151.95
974.06	5107.88
974.23	5110.67
974.39	5104.60
974.56	5120.33
974.73	5077.82
974.89	5082.81
975.06	5052.99
975.23	5102.80
975.39	5057.34
975.56	5055.70
975.73	5029.16
975.89	5013.84
976.06	5030.71
976.23	5002.37
976.39	4966.82
976.56	5010.48
976.73	5007.28
976.89	4995.73
977.06	4984.02
977.23	4964.60
977.39	4958.13
977.56	4986.89
977.72	4926.76
977.89	4957.97
978.06	4923.64
978.22	4906.77
978.39	4927.49
978.56	4910.70
978.72	4887.76
978.89	4905.87
979.05	4887.52
979.22	4925.69
979.39	4849.02
979.55	4876.87
979.72	4841.32
979.88	4887.35
980.05	4825.83
980.22	4859.83
980.38	4851.88
980.55	4822.15
980.71	4809.04
980.88	4784.96
981.05	4800.19
981.21	4786.43
981.38	4760.13
981.54	4788.64
981.71	4754.73
981.88	4771.60
982.04	4757.02
982.21	4736.54
982.37	4738.34
982.54	4740.80
982.70	4730.56
982.87	4743.51
983.04	4711.80
983.20	4753.58
983.37	4712.46
983.53	4719.50
983.70	4681.41
983.86	4721.14
984.03	4694.03
984.20	4663.39
984.36	4678.22
984.53	4701.07
984.69	4646.76
984.86	4621.69
985.02	4645.53
985.19	4632.75
985.35	4610.63
985.52	4619.23
985.68	4621.53
985.85	4624.80
986.02	4634.64
986.18	4636.93
986.35	4630.79
986.51	4634.55
986.68	4614.81
986.84	4598.84
987.01	4597.36
987.17	4604.82
987.34	4586.71
987.50	4564.02
987.67	4558.86
987.83	4582.70
988.00	4550.75
988.16	4548.95
988.33	4540.67
988.49	4566.31
988.66	4519.13
988.82	4541.49
988.99	4533.96
989.15	4534.78
989.32	4509.87
989.48	4528.22
989.65	4471.13
989.81	4483.74
989.98	4458.26
990.14	4450.73
990.31	4474.24
990.47	4445.57
990.64	4446.55
990.80	4436.23
990.97	4423.28
991.13	4452.86
991.30	4396.50
991.46	4402.89
991.63	4377.25
991.79	4417.47
991.95	4355.54
992.12	4386.91
992.28	4404.44
992.45	4385.77
992.61	4406.49
992.78	4388.31
992.94	4364.47
993.11	4409.19
993.27	4393.55
993.44	4387.16
993.60	4390.84
993.76	4382.24
993.93	4349.23
994.09	4365.04
994.26	4344.40
994.42	4368.40
994.59	4317.12
994.75	4371.92
994.91	4334.73
995.08	4324.25
995.24	4280.34
995.41	4327.60
995.57	4285.17
995.74	4261.74
995.90	4270.51
996.06	4298.85
996.23	4263.30
996.39	4271.33
996.56	4252.73
996.72	4262.31
996.88	4276.81
997.05	4260.51
997.21	4259.61
997.38	4246.67
997.54	4221.52
997.70	4258.87
997.87	4234.05
998.03	4237.33
998.20	4212.02
998.36	4226.68
998.52	4196.12
998.69	4248.06
998.85	4181.13
999.02	4207.92
999.18	4191.05
999.34	4217.42
999.51	4210.71
999.67	4221.03
999.83	4201.04
1000.00	4199.48
1000.16	4191.37
1000.33	4187.52
1000.49	4131.74
1000.65	4196.29
1000.82	4195.96
1000.98	4172.61
1001.14	4157.05
1001.31	4193.99
1001.47	4170.32
1001.63	4166.14
1001.80	4130.02
1001.96	4133.29
1002.12	4141.40
1002.29	4138.70
1002.45	4131.65
1002.61	4103.97
1002.78	4134.60
1002.94	4115.68
1003.10	4130.51
1003.27	4109.21
1003.43	4089.55
1003.59	4097.17
1003.76	4096.43
1003.92	4102.08
1004.08	4087.50
1004.25	4125.76
1004.41	4079.14
1004.57	4062.76
1004.74	4059.16
1004.90	4080.05
1005.06	4054.65
1005.23	4060.63
1005.39	4036.05
1005.55	4054.49
1005.71	4049.08
1005.88	4045.48
1006.04	4038.10
1006.20	4047.03
1006.37	4010.58
1006.53	4035.89
1006.69	4021.72
1006.85	4012.54
1007.02	3999.85
1007.18	4002.47
1007.34	4006.81
1007.51	4022.46
1007.67	3996.32
1007.83	3982.40
1007.99	3971.58
1008.16	3972.73
1008.32	3958.56
1008.48	3993.95
1008.64	3966.10
1008.81	3966.83
1008.97	3970.19
1009.13	3966.01
1009.29	3933.98
1009.46	3966.75
1009.62	3962.74
1009.78	3938.08
1009.95	3955.53
1010.11	3939.72
1010.27	3919.57
1010.43	3947.66
1010.59	3951.92
1010.76	3953.81
1010.92	3920.47
1011.08	3936.03
1011.24	3904.82
1011.41	3925.87
1011.57	3898.60
1011.73	3912.11
1011.89	3886.96
1012.06	3916.95
1012.22	3869.76
1012.38	3905.31
1012.54	3886.55
1012.70	3889.09
1012.87	3884.67
1013.03	3881.97
1013.19	3863.29
1013.35	3893.11
1013.51	3856.49
1013.68	3877.13
1013.84	3871.48
1014.00	3877.38
1014.16	3834.70
1014.32	3832.49
1014.49	3838.88
1014.65	3872.63
1014.81	3827.90
1014.97	3828.55
1015.13	3836.50
1015.30	3852.56
1015.46	3832.24
1015.62	3852.97
1015.78	3810.61
1015.94	3827.74
1016.10	3797.18
1016.27	3813.81
1016.43	3797.26
1016.59	3820.69
1016.75	3808.98
1016.91	3807.83
1017.07	3815.04
1017.24	3785.55
1017.40	3784.48
1017.56	3782.11
1017.72	3776.45
1017.88	3791.20
1018.04	3777.11
1018.21	3773.10
1018.37	3760.73
1018.53	3795.79
1018.69	3779.16
1018.85	3773.75
1019.01	3754.75
1019.17	3757.37
1019.34	3758.43
1019.50	3771.46
1019.66	3732.14
1019.82	3754.58
1019.98	3714.69
1020.14	3758.19
1020.30	3754.09
1020.46	3750.98
1020.63	3724.27
1020.79	3727.96
1020.95	3716.57
1021.11	3730.58
1021.27	3685.28
1021.43	3717.47
1021.59	3715.26
1021.75	3692.16
1021.91	3664.88
1022.07	3681.76
1022.24	3684.38
1022.40	3683.48
1022.56	3665.62
1022.72	3701.09
1022.88	3680.53
1023.04	3697.98
1023.20	3676.19
1023.36	3683.15
1023.52	3660.38
1023.68	3693.88
1023.84	3673.07
1024.01	3679.71
1024.17	3660.62
1024.33	3672.83
1024.49	3670.45
1024.65	3657.75
1024.81	3652.68
1024.97	3664.96
1025.13	3650.71
1025.29	3652.76
1025.45	3640.47
1025.61	3662.83
1025.77	3645.47
1025.93	3643.83
1026.09	3632.20
1026.25	3653.74
1026.41	3622.77
1026.57	3635.47
1026.73	3647.51
1026.90	3636.05
1027.06	3635.47
1027.22	3640.80
1027.38	3639.57
1027.54	3635.23
1027.70	3623.76
1027.86	3614.17
1028.02	3624.00
1028.18	3620.07
1028.34	3609.18
1028.50	3614.99
1028.66	3593.28
1028.82	3610.08
1028.98	3581.08
1029.14	3579.52
1029.30	3604.83
1029.46	3604.02
1029.62	3603.61
1029.78	3582.39
1029.94	3597.30
1030.10	3590.01
1030.26	3562.32
1030.42	3577.39
1030.58	3567.73
1030.74	3575.75
1030.90	3562.73
1031.06	3564.20
1031.22	3561.01
1031.38	3549.54
1031.54	3544.71
1031.70	3560.27
1031.86	3569.12
1032.02	3567.56
1032.18	3550.77
1032.34	3553.39
1032.50	3536.60
1032.66	3540.86
1032.82	3540.04
1032.98	3536.10
1033.14	3541.51
1033.30	3551.01
1033.45	3538.23
1033.61	3539.55
1033.77	3543.40
1033.93	3545.03
1034.09	3547.25
1034.25	3552.82
1034.41	3531.76
1034.57	3525.37
1034.73	3515.95
1034.89	3527.99
1035.05	3518.90
1035.21	3542.08
1035.37	3523.57
1035.53	3513.58
1035.69	3516.77
1035.85	3523.33
1036.01	3496.95
1036.16	3522.42
1036.32	3510.96
1036.48	3496.46
1036.64	3484.33
1036.80	3514.64
1036.96	3488.92
1037.12	3482.86
1037.28	3490.31
1037.44	3480.48
1037.60	3481.55
1037.76	3460.66
1037.91	3468.60
1038.07	3470.65
1038.23	3482.37
1038.39	3481.71
1038.55	3476.55
1038.71	3476.39
1038.87	3440.92
1039.03	3493.75
1039.19	3463.61
1039.35	3464.43
1039.50	3459.67
1039.66	3460.17
1039.82	3448.21
1039.98	3463.85
1040.14	3453.12
1040.30	3448.04
1040.46	3443.70
1040.62	3439.28
1040.77	3457.22
1040.93	3471.31
1041.09	3446.98
1041.25	3449.11
1041.41	3446.90
1041.57	3439.36
1041.73	3439.36
1041.88	3439.36

