SpectraSuite Data File
++++++++++++++++++++++++++++++++++++
Date: Tue Sep 20 11:53:18 EDT 2022
User: Laboratoire
Dark Spectrum Present: No
Reference Spectrum Present: No
Number of Sampled Component Spectra: 1
Spectrometers: FLMT00174
Integration Time (usec): 15000 (FLMT00174)
Spectra Averaged: 25 (FLMT00174)
Boxcar Smoothing: 0 (FLMT00174)
Correct for Electrical Dark: No (FLMT00174)
Strobe/Lamp Enabled: No (FLMT00174)
Correct for Detector Non-linearity: No (FLMT00174)
Correct for Stray Light: No (FLMT00174)
Number of Pixels in Processed Spectrum: 3648
>>>>>Begin Processed Spectral Data<<<<<
345.74	3151.33
345.96	3151.33
346.18	3151.33
346.39	3163.95
346.61	3223.42
346.83	3192.46
347.05	3206.87
347.27	3204.99
347.49	3208.84
347.71	3219.00
347.93	3204.74
348.15	3213.34
348.36	3211.46
348.58	3221.37
348.80	3201.63
349.02	3202.78
349.24	3224.65
349.46	3296.74
349.68	3321.31
349.90	3313.37
350.11	3318.69
350.33	3302.80
350.55	3300.01
350.77	3298.70
350.99	3294.03
351.21	3312.96
351.43	3296.66
351.65	3307.72
351.86	3307.88
352.08	3314.68
352.30	3281.67
352.52	3312.79
352.74	3315.99
352.96	3301.57
353.18	3324.26
353.39	3316.97
353.61	3312.71
353.83	3324.10
354.05	3343.60
354.27	3318.94
354.49	3326.31
354.70	3301.41
354.92	3297.89
355.14	3289.69
355.36	3304.85
355.58	3309.03
355.80	3304.85
356.02	3301.82
356.23	3313.20
356.45	3312.71
356.67	3315.25
356.89	3332.13
357.11	3316.89
357.33	3355.56
357.54	3288.05
357.76	3313.37
357.98	3329.18
358.20	3324.43
358.42	3303.62
358.63	3321.15
358.85	3325.16
359.07	3351.95
359.29	3309.76
359.51	3317.14
359.73	3312.88
359.94	3322.87
360.16	3298.05
360.38	3311.98
360.60	3300.75
360.82	3309.11
361.03	3335.65
361.25	3314.43
361.47	3317.05
361.69	3326.15
361.91	3304.85
362.12	3342.12
362.34	3323.44
362.56	3330.41
362.78	3333.11
363.00	3324.43
363.21	3310.25
363.43	3330.98
363.65	3297.64
363.87	3305.42
364.09	3341.55
364.30	3306.90
364.52	3306.32
364.74	3333.60
364.96	3313.37
365.17	3319.43
365.39	3312.47
365.61	3324.02
365.83	3318.12
366.05	3333.19
366.26	3305.34
366.48	3327.87
366.70	3331.06
366.92	3327.54
367.13	3321.56
367.35	3330.00
367.57	3331.96
367.79	3329.01
368.01	3317.87
368.22	3327.87
368.44	3333.68
368.66	3310.75
368.88	3318.61
369.09	3325.16
369.31	3325.16
369.53	3320.09
369.75	3338.11
369.96	3339.34
370.18	3308.04
370.40	3346.54
370.62	3336.55
370.83	3304.85
371.05	3354.41
371.27	3344.82
371.49	3335.24
371.70	3332.86
371.92	3326.47
372.14	3336.47
372.36	3337.53
372.57	3353.18
372.79	3330.65
373.01	3330.65
373.22	3322.21
373.44	3352.85
373.66	3331.06
373.88	3331.80
374.09	3320.82
374.31	3338.84
374.53	3309.03
374.75	3347.12
374.96	3343.68
375.18	3351.87
375.40	3339.66
375.61	3344.82
375.83	3331.96
376.05	3340.73
376.27	3357.93
376.48	3333.85
376.70	3347.69
376.92	3368.58
377.13	3328.93
377.35	3329.34
377.57	3328.60
377.79	3326.56
378.00	3326.72
378.22	3354.33
378.44	3333.68
378.65	3364.16
378.87	3343.84
379.09	3326.31
379.30	3331.47
379.52	3353.84
379.74	3342.53
379.96	3365.80
380.17	3347.45
380.39	3343.27
380.61	3380.38
380.82	3334.34
381.04	3347.36
381.26	3367.43
381.47	3367.76
381.69	3373.25
381.91	3341.79
382.12	3369.81
382.34	3380.95
382.56	3365.80
382.77	3362.60
382.99	3383.24
383.21	3360.88
383.42	3368.42
383.64	3373.74
383.86	3382.10
384.07	3373.50
384.29	3364.57
384.51	3366.70
384.72	3397.91
384.94	3353.59
385.16	3377.26
385.37	3381.44
385.59	3381.44
385.81	3399.79
386.02	3376.69
386.24	3388.49
386.46	3375.22
386.67	3380.87
386.89	3422.48
387.11	3409.79
387.32	3418.39
387.54	3417.98
387.76	3424.20
387.97	3423.71
388.19	3430.35
388.40	3398.97
388.62	3413.64
388.84	3443.70
389.05	3430.76
389.27	3424.86
389.49	3444.68
389.70	3429.61
389.92	3430.51
390.14	3427.73
390.35	3445.34
390.57	3440.83
390.78	3439.44
391.00	3444.68
391.22	3448.78
391.43	3422.97
391.65	3448.86
391.86	3489.57
392.08	3472.54
392.30	3472.78
392.51	3454.84
392.73	3480.15
392.95	3473.76
393.16	3441.57
393.38	3476.71
393.59	3460.17
393.81	3469.10
394.03	3467.70
394.24	3486.30
394.46	3453.53
394.67	3484.25
394.89	3445.75
395.11	3473.03
395.32	3491.54
395.54	3467.70
395.75	3485.15
395.97	3472.78
396.19	3459.84
396.40	3501.78
396.62	3493.51
396.83	3497.85
397.05	3474.50
397.26	3497.11
397.48	3481.79
397.70	3499.90
397.91	3508.09
398.13	3498.59
398.34	3505.14
398.56	3526.27
398.78	3509.73
398.99	3553.55
399.21	3494.82
399.42	3538.56
399.64	3496.54
399.85	3536.76
400.07	3536.68
400.29	3541.18
400.50	3540.20
400.72	3547.00
400.93	3550.03
401.15	3552.73
401.36	3547.66
401.58	3572.80
401.79	3575.84
402.01	3589.19
402.23	3581.98
402.44	3632.61
402.66	3594.59
402.87	3614.99
403.09	3612.78
403.30	3604.26
403.52	3595.91
403.73	3620.89
403.95	3604.42
404.16	3651.77
404.38	3645.06
404.60	3649.81
404.81	3673.97
405.03	3685.28
405.24	3695.68
405.46	3690.60
405.67	3695.35
405.89	3707.72
406.10	3729.60
406.32	3739.92
406.53	3749.75
406.75	3783.58
406.96	3769.25
407.18	3790.30
407.39	3772.52
407.61	3796.03
407.82	3768.92
408.04	3847.07
408.25	3822.25
408.47	3825.20
408.68	3843.79
408.90	3832.98
409.12	3871.07
409.33	3866.89
409.55	3871.40
409.76	3882.38
409.98	3885.08
410.19	3908.43
410.41	3915.31
410.62	3928.91
410.84	3897.37
411.05	3914.08
411.27	3949.55
411.48	3961.18
411.70	3947.66
411.91	3956.43
412.12	3959.38
412.34	3944.47
412.55	3947.42
412.77	3972.90
412.98	3970.11
413.20	3964.46
413.41	3984.53
413.63	3972.65
413.84	3971.75
414.06	4006.65
414.27	3993.62
414.49	4017.79
414.70	3980.60
414.92	4001.24
415.13	3977.32
415.35	3999.03
415.56	4019.51
415.78	3997.55
415.99	4007.30
416.21	4011.32
416.42	4023.52
416.63	4011.07
416.85	4030.07
417.06	4002.63
417.28	4002.55
417.49	4031.63
417.71	4007.06
417.92	3997.64
418.14	4015.00
418.35	4023.77
418.57	4050.14
418.78	4043.35
418.99	3998.95
419.21	4043.67
419.42	4027.45
419.64	4029.17
419.85	4038.10
420.07	4085.53
420.28	4058.83
420.50	4052.77
420.71	4054.08
420.92	4068.74
421.14	4094.38
421.35	4089.71
421.57	4069.97
421.78	4091.27
422.00	4098.72
422.21	4091.10
422.42	4093.81
422.64	4104.95
422.85	4133.21
423.07	4153.28
423.28	4139.27
423.50	4158.69
423.71	4178.10
423.92	4181.87
424.14	4183.43
424.35	4219.55
424.57	4224.39
424.78	4241.02
424.99	4247.98
425.21	4260.35
425.42	4270.92
425.64	4266.90
425.85	4298.60
426.06	4304.58
426.28	4312.28
426.49	4354.31
426.71	4354.80
426.92	4373.97
427.13	4394.20
427.35	4430.99
427.56	4443.60
427.78	4458.02
427.99	4462.03
428.20	4515.28
428.42	4548.05
428.63	4557.80
428.84	4515.20
429.06	4578.28
429.27	4610.31
429.49	4620.63
429.70	4657.82
429.91	4650.94
430.13	4711.56
430.34	4739.08
430.56	4743.18
430.77	4828.54
430.98	4775.54
431.20	4844.35
431.41	4891.45
431.62	4892.27
431.84	4890.63
432.05	4937.90
432.26	4966.90
432.48	4959.93
432.69	5020.55
432.91	5043.66
433.12	5075.28
433.33	5124.43
433.55	5156.21
433.76	5175.54
433.97	5144.25
434.19	5215.85
434.40	5250.09
434.61	5288.51
434.83	5321.77
435.04	5309.15
435.25	5371.25
435.47	5383.86
435.68	5359.21
435.89	5445.22
436.11	5432.20
436.32	5457.84
436.53	5495.52
436.75	5486.18
436.96	5510.76
437.17	5498.06
437.39	5496.83
437.60	5575.31
437.81	5585.55
438.03	5610.78
438.24	5597.18
438.45	5699.91
438.67	5637.48
438.88	5689.75
439.09	5759.71
439.31	5709.00
439.52	5734.39
439.73	5705.40
439.94	5690.24
440.16	5723.99
440.37	5707.85
440.58	5772.57
440.80	5777.73
441.01	5730.22
441.22	5856.54
441.44	5816.31
441.65	5762.33
441.86	5774.86
442.08	5786.25
442.29	5801.65
442.50	5817.21
442.71	5778.47
442.93	5818.28
443.14	5789.69
443.35	5839.00
443.57	5762.49
443.78	5810.99
443.99	5823.19
444.20	5761.43
444.42	5821.06
444.63	5827.45
444.84	5826.80
445.06	5864.89
445.27	5780.27
445.48	5779.53
445.69	5814.35
445.91	5780.76
446.12	5782.07
446.33	5804.93
446.54	5866.61
446.76	5800.58
446.97	5834.58
447.18	5807.30
447.39	5855.96
447.61	5858.91
447.82	5852.28
448.03	5826.31
448.25	5852.03
448.46	5885.86
448.67	5922.64
448.88	5847.93
449.10	5902.49
449.31	5918.63
449.52	5857.03
449.73	5891.68
449.95	5993.34
450.16	5912.81
450.37	5990.64
450.58	6062.15
450.79	5934.77
451.01	5989.98
451.22	5991.21
451.43	5974.33
451.64	6063.46
451.86	6066.08
452.07	6071.49
452.28	6134.16
452.49	6213.95
452.71	6091.15
452.92	6112.94
453.13	6149.15
453.34	6200.76
453.55	6253.84
453.77	6287.84
453.98	6282.92
454.19	6249.17
454.40	6289.07
454.62	6393.92
454.83	6324.21
455.04	6467.49
455.25	6372.79
455.46	6555.63
455.68	6504.18
455.89	6514.18
456.10	6527.20
456.31	6602.24
456.52	6631.16
456.74	6643.28
456.95	6748.38
457.16	6736.42
457.37	6837.59
457.58	6827.52
457.80	6839.64
458.01	6835.30
458.22	7120.38
458.43	7014.95
458.64	7082.29
458.86	6998.56
459.07	7112.60
459.28	7137.66
459.49	7256.20
459.70	7391.53
459.91	7387.76
460.13	7414.88
460.34	7454.11
460.55	7467.39
460.76	7623.44
460.97	7649.82
461.19	7666.94
461.40	7900.00
461.61	7811.44
461.82	7894.10
462.03	7970.20
462.24	8049.34
462.46	8042.78
462.67	8087.67
462.88	8231.11
463.09	8281.49
463.30	8408.71
463.51	8400.03
463.72	8610.48
463.94	8625.39
464.15	8691.83
464.36	8642.18
464.57	8891.22
464.78	8940.86
464.99	9001.72
465.20	8962.08
465.42	9235.36
465.63	9206.44
465.84	9271.73
466.05	9429.18
466.26	9494.63
466.47	9584.25
466.68	9584.90
466.90	9825.17
467.11	9795.60
467.32	9914.79
467.53	10080.51
467.74	9922.98
467.95	10070.52
468.16	10251.80
468.37	10376.48
468.59	10409.01
468.80	10537.70
469.01	10463.24
469.22	10666.23
469.43	10896.18
469.64	10782.72
469.85	10914.12
470.06	10964.42
470.28	11173.64
470.49	10987.76
470.70	11174.54
470.91	11443.23
471.12	11287.99
471.33	11556.03
471.54	11462.15
471.75	11569.22
471.96	11880.43
472.17	11840.78
472.39	12013.79
472.60	11837.51
472.81	12118.16
473.02	12026.82
473.23	12237.19
473.44	12322.55
473.65	12213.02
473.86	12366.45
474.07	12406.10
474.28	12425.44
474.49	12713.13
474.71	12609.02
474.92	12726.57
475.13	12641.29
475.34	12724.19
475.55	12778.10
475.76	12866.90
475.97	13064.32
476.18	12978.80
476.39	13168.85
476.60	13235.61
476.81	13219.56
477.02	13335.96
477.23	13321.46
477.44	13303.77
477.65	13429.02
477.87	13546.66
478.08	13535.03
478.29	13528.47
478.50	13823.63
478.71	13624.89
478.92	13772.10
479.13	13785.45
479.34	13794.05
479.55	13891.13
479.76	13855.33
479.97	13872.12
480.18	14182.02
480.39	13911.93
480.60	14170.80
480.81	14159.33
481.02	14149.33
481.23	14126.64
481.44	14299.82
481.65	14395.58
481.86	14542.05
482.07	14229.61
482.28	14749.31
482.49	14525.91
482.71	14527.23
482.92	14587.60
483.13	14784.61
483.34	14640.44
483.55	14739.64
483.76	14728.99
483.97	14907.33
484.18	14826.39
484.39	14995.80
484.60	14857.03
484.81	15135.55
485.02	15047.57
485.23	15267.20
485.44	15280.55
485.65	15359.44
485.86	15295.46
486.07	15472.90
486.28	15465.11
486.49	15569.23
486.70	15604.62
486.91	15732.50
487.12	15677.53
487.33	15621.99
487.54	15956.13
487.75	15959.90
487.96	15936.64
488.17	15946.96
488.38	16144.14
488.59	16182.39
488.80	16282.91
489.01	16267.83
489.22	16501.06
489.43	16445.35
489.64	16411.93
489.85	16763.44
490.06	16517.28
490.26	16774.58
490.47	16719.04
490.68	16973.89
490.89	17141.01
491.10	16986.02
491.31	17247.17
491.52	17422.48
491.73	17357.44
491.94	17362.84
492.15	17581.07
492.36	17707.80
492.57	17744.34
492.78	17793.41
492.99	17865.25
493.20	18079.80
493.41	18141.97
493.62	18248.38
493.83	18319.16
494.04	18407.23
494.25	18662.32
494.46	18667.89
494.67	18657.98
494.88	18879.08
495.08	19010.72
495.29	19160.30
495.50	19329.96
495.71	19323.24
495.92	19614.30
496.13	19709.16
496.34	19650.51
496.55	19846.78
496.76	20161.02
496.97	20009.72
497.18	20333.95
497.39	20371.23
497.60	20705.46
497.81	20513.68
498.02	20814.16
498.22	20741.58
498.43	21188.78
498.64	21243.17
498.85	21396.11
499.06	21506.38
499.27	21907.29
499.48	21553.64
499.69	21968.89
499.90	22129.37
500.11	22381.02
500.32	22682.07
500.52	22604.50
500.73	23099.53
500.94	23222.25
501.15	23343.08
501.36	23530.18
501.57	23467.67
501.78	23714.41
501.99	24113.11
502.20	24129.91
502.41	24395.57
502.61	24386.31
502.82	24766.58
503.03	24665.33
503.24	25225.65
503.45	25115.14
503.66	25574.46
503.87	25611.16
504.08	26014.36
504.28	25962.84
504.49	26324.67
504.70	26445.50
504.91	26681.26
505.12	26623.10
505.33	27177.94
505.54	27318.92
505.75	27471.62
505.95	27813.46
506.16	27818.46
506.37	27779.55
506.58	28437.77
506.79	28161.54
507.00	28708.51
507.21	28517.15
507.41	28719.08
507.62	28996.21
507.83	29520.90
508.04	29286.04
508.25	29841.03
508.46	29707.34
508.67	30269.55
508.87	30123.08
509.08	30673.33
509.29	30671.61
509.50	30929.24
509.71	31059.90
509.92	31316.15
510.12	31251.68
510.33	31474.00
510.54	31487.60
510.75	31801.84
510.96	32088.80
511.17	32355.86
511.37	32347.26
511.58	32615.95
511.79	32480.05
512.00	32498.97
512.21	33135.97
512.42	33098.70
512.62	33273.68
512.83	33618.39
513.04	33473.64
513.25	33853.41
513.46	33246.81
513.66	34242.69
513.87	33930.58
514.08	34337.64
514.29	34137.10
514.50	34209.43
514.71	34475.67
514.91	34289.14
515.12	34406.94
515.33	34600.02
515.54	34565.37
515.75	34938.10
515.95	34631.15
516.16	34731.99
516.37	35121.19
516.58	35198.36
516.78	35001.59
516.99	35216.22
517.20	35214.33
517.41	35164.85
517.62	35224.00
517.82	35097.84
518.03	35598.61
518.24	35855.51
518.45	35188.36
518.66	35673.81
518.86	35353.10
519.07	35761.30
519.28	35020.35
519.49	35648.25
519.69	35649.98
519.90	35656.28
520.11	35655.30
520.32	35422.81
520.52	35731.16
520.73	35282.90
520.94	35767.77
521.15	35633.51
521.36	35142.73
521.56	35774.41
521.77	35100.63
521.98	35612.13
522.19	35098.83
522.39	35358.59
522.60	35134.38
522.81	35158.30
523.02	34949.57
523.22	35189.18
523.43	35204.34
523.64	34946.21
523.84	34991.84
524.05	35207.61
524.26	35052.30
524.47	34776.56
524.67	34878.71
524.88	34914.67
525.09	35100.22
525.30	34691.77
525.50	34570.29
525.71	34690.62
525.92	34589.45
526.13	34796.38
526.33	34497.21
526.54	34249.25
526.75	34467.72
526.95	34642.37
527.16	34032.49
527.37	34478.29
527.58	34441.51
527.78	34329.77
527.99	34482.55
528.20	34437.09
528.40	34191.82
528.61	34014.47
528.82	34301.59
529.03	34084.75
529.23	33900.19
529.44	34067.22
529.65	33977.19
529.85	33931.40
530.06	33811.47
530.27	33810.65
530.47	33438.33
530.68	34092.45
530.89	33418.67
531.09	33865.78
531.30	33697.28
531.51	33339.78
531.72	33738.24
531.92	33588.41
532.13	33636.33
532.34	33453.41
532.54	33451.36
532.75	33614.87
532.96	33543.27
533.16	33717.59
533.37	33674.83
533.58	33412.61
533.78	33615.93
533.99	33676.22
534.20	33237.47
534.40	33616.26
534.61	33622.73
534.82	33669.18
535.02	33659.19
535.23	33664.02
535.44	33717.02
535.64	33593.57
535.85	33673.03
536.06	33607.90
536.26	33534.01
536.47	33618.06
536.68	34065.09
536.88	33449.80
537.09	33926.90
537.29	33523.12
537.50	34157.58
537.71	33757.90
537.91	34001.69
538.12	34074.02
538.33	33835.97
538.53	33954.75
538.74	34029.05
538.95	34065.75
539.15	33970.15
539.36	34220.74
539.56	34402.11
539.77	34138.49
539.98	34233.35
540.18	34440.53
540.39	34205.83
540.60	34493.53
540.80	34688.09
541.01	34728.55
541.21	34696.11
541.42	34874.61
541.63	34820.06
541.83	34974.88
542.04	34956.21
542.25	35082.93
542.45	35240.30
542.66	35279.29
542.86	35454.19
543.07	34755.26
543.28	35620.16
543.48	35462.87
543.69	35712.15
543.89	35618.44
544.10	36117.16
544.31	35980.44
544.51	35952.01
544.72	36134.93
544.92	36082.59
545.13	36609.16
545.33	36603.10
545.54	36485.22
545.75	36802.08
545.95	36771.77
546.16	36812.73
546.36	37385.18
546.57	36786.11
546.78	36286.65
546.98	36853.12
547.19	36273.29
547.39	37304.82
547.60	37634.05
547.80	38244.01
548.01	38359.77
548.22	38119.17
548.42	38307.91
548.63	38586.27
548.83	38567.10
549.04	38940.90
549.24	38894.12
549.45	39124.80
549.65	39585.11
549.86	39106.45
550.07	39360.40
550.27	39876.98
550.48	40012.64
550.68	40032.87
550.89	40102.83
551.09	40407.65
551.30	40413.96
551.50	40800.53
551.71	40710.18
551.91	40929.31
552.12	41224.55
552.33	41564.18
552.53	41291.97
552.74	41976.31
552.94	42146.21
553.15	42038.98
553.35	42338.56
553.56	42184.31
553.76	42763.72
553.97	42565.15
554.17	42864.31
554.38	43671.54
554.58	43136.45
554.79	43785.65
554.99	43502.46
555.20	43783.36
555.40	44347.94
555.61	44116.36
555.81	44051.81
556.02	45048.68
556.22	45015.25
556.43	44917.77
556.63	45162.95
556.84	45146.32
557.04	45768.42
557.25	45401.58
557.45	45992.22
557.66	46157.04
557.86	46120.26
558.07	46896.11
558.27	46766.51
558.48	46944.69
558.68	47127.61
558.89	47403.10
559.09	47641.82
559.30	47551.29
559.50	47975.55
559.71	47694.33
559.91	48559.14
560.12	48374.99
560.32	48493.36
560.53	48848.15
560.73	48683.08
560.94	49322.71
561.14	49026.98
561.35	49772.69
561.55	49487.28
561.76	49878.61
561.96	49426.33
562.17	50080.70
562.37	50400.43
562.57	50253.88
562.78	50449.83
562.98	50845.82
563.19	50930.03
563.39	51202.25
563.60	51439.08
563.80	50963.62
564.01	51829.67
564.21	51715.88
564.42	51663.62
564.62	52012.67
564.82	52364.10
565.03	52018.41
565.23	52258.18
565.44	52513.85
565.64	52372.05
565.85	52762.47
566.05	52668.60
566.25	53178.54
566.46	52776.15
566.66	53071.72
566.87	53171.49
567.07	53182.80
567.28	53266.19
567.48	53651.78
567.68	53203.28
567.89	54072.03
568.09	53615.49
568.30	53583.55
568.50	54056.63
568.71	53994.20
568.91	54296.48
569.11	53935.96
569.32	54089.07
569.52	54246.19
569.73	53749.10
569.93	54301.81
570.13	54092.02
570.34	54032.30
570.54	54535.69
570.75	54268.96
570.95	54356.61
571.15	54167.54
571.36	54800.37
571.56	54240.21
571.77	54234.47
571.97	53754.18
572.17	54584.92
572.38	54410.84
572.58	54557.64
572.79	54327.20
572.99	54474.99
573.19	54500.79
573.40	54421.17
573.60	54566.98
573.81	54326.71
574.01	54541.01
574.21	54274.37
574.42	54181.47
574.62	53846.34
574.82	54292.55
575.03	53912.12
575.23	54322.78
575.43	53883.12
575.64	53860.60
575.84	54162.96
576.05	53511.87
576.25	53706.67
576.45	53523.01
576.66	54064.08
576.86	53403.08
577.06	53696.10
577.27	53475.41
577.47	53522.19
577.67	53355.81
577.88	52745.60
578.08	53329.52
578.28	53250.22
578.49	52991.52
578.69	53121.36
578.89	52612.07
579.10	52620.18
579.30	53077.45
579.50	52421.77
579.71	51993.34
579.91	52463.88
580.11	52124.98
580.32	51995.88
580.52	51973.35
580.72	52444.63
580.93	51696.47
581.13	51501.25
581.33	51931.24
581.54	51327.26
581.74	51298.18
581.94	51333.40
582.15	51625.20
582.35	51128.85
582.55	51169.24
582.76	50783.64
582.96	51082.73
583.16	50541.49
583.37	50646.27
583.57	50237.25
583.77	50566.15
583.97	49555.68
584.18	50593.84
584.38	50175.73
584.58	49774.41
584.79	50084.88
584.99	49989.28
585.19	49743.36
585.40	49522.92
585.60	49749.83
585.80	49110.70
586.00	49259.79
586.21	49204.74
586.41	49050.33
586.61	49200.16
586.82	48980.45
587.02	48691.03
587.22	48981.76
587.42	48269.56
587.63	48748.29
587.83	47951.39
588.03	48246.79
588.23	47802.13
588.44	48118.66
588.64	47791.15
588.84	47985.05
589.05	48000.62
589.25	47895.19
589.45	47739.95
589.65	47421.70
589.86	47689.16
590.06	47552.93
590.26	47147.60
590.46	47374.76
590.67	46637.00
590.87	47098.94
591.07	47216.98
591.27	46634.05
591.48	47076.41
591.68	46373.71
591.88	47102.95
592.08	46382.15
592.29	46647.81
592.49	46288.68
592.69	46476.60
592.89	46117.63
593.10	46060.62
593.30	45912.92
593.50	46297.94
593.70	45333.34
593.90	45922.34
594.11	45667.33
594.31	45729.09
594.51	45880.32
594.71	45857.79
594.92	45859.75
595.12	45569.19
595.32	45500.95
595.52	45716.23
595.72	45050.73
595.93	45624.07
596.13	45289.60
596.33	45051.22
596.53	45475.80
596.73	45209.48
596.94	45054.82
597.14	45341.62
597.34	45007.80
597.54	45392.16
597.74	44916.13
597.95	44970.85
598.15	44884.27
598.35	44966.59
598.55	45144.11
598.75	44752.79
598.96	45213.17
599.16	44776.71
599.36	44907.61
599.56	44797.43
599.76	44660.30
599.97	45010.91
600.17	44779.82
600.37	44848.96
600.57	44236.29
600.77	45044.50
600.97	44634.41
601.18	45220.13
601.38	44797.43
601.58	45032.05
601.78	44750.25
601.98	44694.21
602.18	44957.17
602.39	45253.64
602.59	44944.56
602.79	44811.52
602.99	44822.58
603.19	44835.36
603.39	44702.41
603.60	44645.64
603.80	44745.66
604.00	44660.38
604.20	44776.71
604.40	44981.01
604.60	44831.59
604.80	44811.60
605.01	45013.86
605.21	44916.62
605.41	44917.61
605.61	44758.44
605.81	45009.93
606.01	45306.80
606.21	44838.23
606.42	45204.08
606.62	44939.48
606.82	45365.21
607.02	45122.81
607.22	45344.16
607.42	45632.84
607.62	45065.72
607.82	45482.60
608.03	45408.87
608.23	45317.21
608.43	45155.99
608.63	45685.43
608.83	45646.52
609.03	45580.58
609.23	45687.40
609.43	45907.35
609.63	45655.78
609.84	45631.53
610.04	46171.70
610.24	46083.80
610.44	46165.56
610.64	45953.63
610.84	46363.23
611.04	46734.81
611.24	46484.55
611.44	45982.96
611.64	46441.38
611.85	46635.77
612.05	46611.85
612.25	46878.33
612.45	46631.92
612.65	46936.33
612.85	47074.53
613.05	46803.95
613.25	47257.12
613.45	47150.71
613.65	47233.04
613.85	47007.11
614.05	47547.12
614.25	47626.91
614.46	47403.51
614.66	47302.59
614.86	47312.75
615.06	47555.31
615.26	47966.46
615.46	47281.13
615.66	48064.60
615.86	48111.37
616.06	47899.20
616.26	48052.56
616.46	48617.55
616.66	48250.96
616.86	48772.54
617.06	48430.61
617.26	49032.55
617.46	48827.67
617.66	48748.21
617.86	48716.92
618.07	49031.48
618.27	49061.96
618.47	49138.39
618.67	49356.70
618.87	49626.13
619.07	49391.52
619.27	49385.13
619.47	49544.87
619.67	50163.11
619.87	49713.38
620.07	50271.82
620.27	50366.51
620.47	50159.92
620.67	50469.57
620.87	50582.29
621.07	50840.25
621.27	50803.14
621.47	50549.28
621.67	51008.59
621.87	50812.32
622.07	51260.25
622.27	51260.90
622.47	51065.04
622.67	51257.05
622.87	50997.13
623.07	51565.40
623.27	52073.54
623.47	51151.71
623.67	51848.75
623.87	52438.32
624.07	52312.90
624.27	52159.88
624.47	52510.08
624.67	52393.84
624.87	52737.57
625.07	52488.78
625.27	53144.30
625.47	52820.31
625.67	52741.58
625.87	53074.09
626.07	53131.93
626.27	53492.45
626.47	53457.31
626.67	53414.96
626.87	53150.44
627.07	53802.35
627.27	53716.42
627.47	53986.91
627.67	53941.29
627.87	54025.50
628.07	54513.73
628.27	54353.17
628.47	54189.99
628.67	54833.63
628.86	55031.54
629.06	54763.83
629.26	54745.81
629.46	55251.08
629.66	55203.33
629.86	54698.79
630.06	55365.93
630.26	55376.01
630.46	55788.63
630.66	55362.98
630.86	55611.20
631.06	55759.23
631.26	55500.53
631.46	56203.31
631.66	56173.33
631.86	55902.91
632.06	56417.61
632.26	56258.27
632.45	56403.44
632.65	56475.28
632.85	56705.80
633.05	56721.12
633.25	56819.75
633.45	56580.87
633.65	56877.99
633.85	57432.42
634.05	56604.79
634.25	57025.12
634.45	57057.06
634.65	57509.75
634.84	57046.25
635.04	57348.20
635.24	57085.82
635.44	57437.09
635.64	57257.52
635.84	57654.58
636.04	57582.41
636.24	57523.67
636.44	57608.21
636.64	57055.34
636.84	58124.96
637.03	57538.42
637.23	57831.11
637.43	58054.67
637.63	57864.87
637.83	58204.83
638.03	58226.78
638.23	57827.84
638.43	58237.84
638.62	58604.67
638.82	57516.47
639.02	58478.93
639.22	58153.63
639.42	58478.19
639.62	58007.40
639.82	58280.52
640.02	58302.80
640.21	58544.79
640.41	57796.14
640.61	58385.54
640.81	58279.95
641.01	58179.02
641.21	58073.35
641.41	58802.43
641.61	58049.26
641.80	58227.52
642.00	58637.36
642.20	58547.82
642.40	57800.48
642.60	58353.35
642.80	58509.24
642.99	57930.07
643.19	58358.18
643.39	57742.81
643.59	58261.27
643.79	58072.04
643.99	58351.54
644.19	58198.60
644.38	57656.30
644.58	58080.56
644.78	57802.28
644.98	57853.15
645.18	58004.95
645.38	58299.28
645.57	57756.41
645.77	57907.05
645.97	57627.22
646.17	57955.55
646.37	57774.59
646.56	57487.30
646.76	57527.03
646.96	57573.40
647.16	57246.05
647.36	57326.09
647.55	57034.86
647.75	57113.59
647.95	56752.25
648.15	57131.69
648.35	56981.62
648.55	57036.01
648.74	56787.96
648.94	56823.76
649.14	56981.37
649.34	56534.18
649.54	56328.07
649.73	56371.81
649.93	56117.87
650.13	56226.49
650.33	55861.21
650.52	56246.97
650.72	56339.37
650.92	55921.34
651.12	55538.21
651.32	55892.84
651.51	55919.79
651.71	55796.58
651.91	55482.59
652.11	55134.35
652.30	54975.59
652.50	55415.58
652.70	55406.81
652.90	54863.94
653.10	55236.83
653.29	54865.66
653.49	55182.03
653.69	54599.17
653.89	54624.65
654.08	54525.37
654.28	54866.23
654.48	54477.44
654.68	54500.63
654.87	54249.22
655.07	53803.91
655.27	54219.40
655.47	53753.77
655.66	53757.30
655.86	53445.02
656.06	53991.01
656.26	52986.69
656.45	53356.30
656.65	53185.58
656.85	52919.02
657.04	52638.86
657.24	52630.75
657.44	52483.21
657.64	52879.04
657.83	51792.88
658.03	52355.75
658.23	52158.65
658.43	51913.06
658.62	51935.67
658.82	51614.96
659.02	51443.01
659.21	51401.23
659.41	51136.80
659.61	51506.82
659.81	51033.74
660.00	50753.83
660.20	50956.00
660.40	50635.62
660.59	50679.12
660.79	50217.91
660.99	50636.93
661.19	50471.78
661.38	50390.84
661.58	49705.43
661.78	49996.16
661.97	49587.06
662.17	50155.57
662.37	49302.96
662.56	49211.87
662.76	49127.58
662.96	49222.36
663.15	49345.81
663.35	49064.91
663.55	48788.68
663.74	48447.32
663.94	48754.35
664.14	48190.34
664.33	48466.98
664.53	48071.07
664.73	48484.92
664.93	47716.36
665.12	48096.30
665.32	47707.35
665.52	47716.12
665.71	47398.93
665.91	47415.97
666.10	47078.05
666.30	47432.10
666.50	46865.80
666.69	46858.34
666.89	47065.27
667.09	47253.93
667.28	46647.65
667.48	46426.88
667.68	46358.39
667.87	46237.89
668.07	45897.93
668.27	46226.50
668.46	46133.85
668.66	45841.08
668.86	46074.46
669.05	45493.25
669.25	45687.48
669.44	45384.63
669.64	45267.81
669.84	45216.12
670.03	45533.31
670.23	45030.00
670.43	44937.60
670.62	44823.07
670.82	44763.52
671.01	44936.69
671.21	44469.43
671.41	44482.70
671.60	44641.13
671.80	44700.69
672.00	44402.75
672.19	44528.90
672.39	44319.11
672.58	44214.17
672.78	44105.38
672.98	44245.79
673.17	44018.55
673.37	43268.99
673.56	43508.28
673.76	43558.25
673.96	43701.20
674.15	43429.23
674.35	43460.93
674.54	43294.47
674.74	43161.84
674.94	43151.03
675.13	43174.05
675.33	42733.16
675.52	43084.59
675.72	42921.00
675.91	42794.85
676.11	43027.41
676.31	42481.43
676.50	42689.50
676.70	42381.48
676.89	42476.51
677.09	42556.95
677.28	42476.10
677.48	41803.96
677.68	42295.96
677.87	41987.54
678.07	41896.77
678.26	41844.26
678.46	41880.39
678.65	41617.35
678.85	41977.22
679.04	41411.73
679.24	41658.88
679.44	41378.14
679.63	41514.37
679.83	41332.51
680.02	41412.63
680.22	41055.14
680.41	41283.77
680.61	41072.91
680.80	40956.10
681.00	41055.79
681.19	41020.49
681.39	40781.45
681.59	40698.96
681.78	40621.21
681.98	40874.51
682.17	40235.70
682.37	40653.57
682.56	40350.23
682.76	40616.79
682.95	40418.47
683.15	40369.97
683.34	40159.93
683.54	40281.17
683.73	40294.11
683.93	39820.62
684.12	40100.87
684.32	40251.68
684.51	39674.40
684.71	39969.22
684.90	39741.49
685.10	39801.62
685.29	39621.72
685.49	39833.81
685.68	39867.89
685.88	39697.33
686.07	39419.47
686.27	39783.02
686.46	39609.93
686.66	39453.95
686.85	39629.34
687.05	39449.61
687.24	39364.09
687.44	39630.24
687.63	39540.79
687.83	39086.06
688.02	39507.45
688.22	39579.70
688.41	39272.59
688.61	39306.75
688.80	39377.11
689.00	39013.56
689.19	38885.85
689.39	39332.22
689.58	39251.37
689.77	39182.80
689.97	39321.74
690.16	39017.82
690.36	38649.10
690.55	38516.89
690.75	39204.59
690.94	38707.35
691.14	38900.92
691.33	38509.27
691.53	38829.08
691.72	38715.70
691.91	38827.93
692.11	38792.79
692.30	38913.95
692.50	39027.16
692.69	38637.55
692.89	38749.37
693.08	38588.73
693.28	38442.67
693.47	38719.55
693.66	38671.06
693.86	38618.38
694.05	38548.59
694.25	38692.52
694.44	38735.53
694.64	38626.25
694.83	38603.31
695.02	38587.50
695.22	38834.65
695.41	38550.14
695.61	38377.13
695.80	38346.00
695.99	38367.71
696.19	38434.80
696.38	38345.59
696.58	38066.33
696.77	38555.55
696.96	38512.54
697.16	38293.49
697.35	38351.08
697.55	38360.99
697.74	38236.40
697.93	38708.17
698.13	38266.13
698.32	38645.74
698.52	38343.87
698.71	37990.48
698.90	38598.48
699.10	38200.11
699.29	38268.59
699.49	38690.39
699.68	38391.96
699.87	38346.33
700.07	38649.84
700.26	38370.33
700.45	38419.89
700.65	38224.35
700.84	38554.81
701.04	38246.55
701.23	38452.99
701.42	38331.67
701.62	38289.32
701.81	38342.07
702.00	38225.34
702.20	38077.56
702.39	38409.57
702.58	38579.39
702.78	38392.78
702.97	38434.72
703.17	38653.12
703.36	38574.97
703.55	38428.00
703.75	38412.36
703.94	38612.89
704.13	38333.47
704.33	38214.20
704.52	38624.69
704.71	38545.56
704.91	38636.16
705.10	38498.54
705.29	38610.93
705.49	38692.11
705.68	38742.16
705.87	38698.42
706.07	38324.54
706.26	38771.33
706.45	38376.89
706.65	38295.21
706.84	38677.77
707.03	38904.69
707.23	38423.09
707.42	38438.24
707.61	38767.88
707.80	38615.02
708.00	38661.80
708.19	38501.57
708.38	38906.49
708.58	38352.97
708.77	39011.02
708.96	38522.37
709.16	38527.62
709.35	39230.40
709.54	38746.09
709.74	38739.13
709.93	38462.00
710.12	39035.10
710.31	39150.20
710.51	38780.66
710.70	39004.55
710.89	39085.73
711.09	38599.30
711.28	38620.68
711.47	38977.19
711.66	38965.14
711.86	38954.17
712.05	38956.54
712.24	39252.27
712.43	38875.28
712.63	38530.65
712.82	39117.19
713.01	38992.26
713.21	38706.86
713.40	38864.71
713.59	39211.88
713.78	38701.61
713.98	39164.21
714.17	38962.20
714.36	39132.10
714.55	38651.23
714.75	38863.24
714.94	38975.38
715.13	39259.81
715.32	38761.49
715.52	39106.37
715.71	38902.97
715.90	39032.15
716.09	38912.64
716.29	39383.26
716.48	39371.54
716.67	38892.48
716.86	39276.19
717.06	39222.45
717.25	39334.43
717.44	39554.22
717.63	39502.20
717.82	38946.55
718.02	39271.03
718.21	39479.92
718.40	39573.31
718.59	39424.46
718.79	39187.47
718.98	39227.78
719.17	39440.68
719.36	39628.60
719.55	39466.49
719.75	39322.23
719.94	39391.78
720.13	39740.42
720.32	39585.02
720.51	39397.59
720.71	39420.70
720.90	39033.96
721.09	39417.09
721.28	39168.47
721.47	39635.65
721.67	39421.60
721.86	39579.45
722.05	39607.31
722.24	39233.76
722.43	39727.48
722.63	39428.72
722.82	39521.95
723.01	39628.52
723.20	39374.90
723.39	39555.62
723.58	39872.40
723.78	39233.51
723.97	39842.82
724.16	39401.20
724.35	39563.15
724.54	39345.74
724.73	39622.22
724.93	39397.27
725.12	39654.00
725.31	38999.39
725.50	39460.84
725.69	39611.57
725.88	39328.95
726.08	39007.99
726.27	39546.44
726.46	38926.23
726.65	39642.69
726.84	39059.84
727.03	39283.81
727.23	39729.61
727.42	39313.55
727.61	39392.02
727.80	39231.46
727.99	39410.29
728.18	39532.51
728.37	39311.01
728.56	39194.19
728.76	39032.15
728.95	39397.84
729.14	39303.55
729.33	39223.76
729.52	39335.83
729.71	39377.20
729.90	39228.43
730.09	39005.86
730.29	39321.66
730.48	38870.53
730.67	39215.98
730.86	38868.97
731.05	39313.46
731.24	38987.51
731.43	39160.85
731.62	38938.19
731.81	38828.26
732.01	39335.66
732.20	38871.68
732.39	39311.09
732.58	39191.49
732.77	38608.80
732.96	39288.07
733.15	39265.79
733.34	38985.71
733.53	39059.27
733.72	39102.52
733.92	39056.81
734.11	38831.54
734.30	38939.26
734.49	39191.73
734.68	38844.97
734.87	38801.55
735.06	38681.38
735.25	38751.26
735.44	38466.34
735.63	38562.02
735.82	38564.97
736.01	38385.65
736.20	38424.81
736.40	38733.81
736.59	38630.26
736.78	38834.73
736.97	38362.80
737.16	38462.57
737.35	38567.27
737.54	38628.21
737.73	38378.03
737.92	38630.18
738.11	38753.14
738.30	38401.87
738.49	38292.51
738.68	38251.55
738.87	38318.48
739.06	38105.90
739.25	38277.52
739.44	38260.48
739.63	38052.90
739.82	37816.73
740.01	38138.42
740.20	37832.95
740.39	37810.34
740.59	37739.07
740.78	37842.04
740.97	37620.86
741.16	37446.29
741.35	37558.68
741.54	37466.93
741.73	37448.67
741.92	37261.07
742.11	37340.70
742.30	37362.90
742.49	36964.12
742.68	37339.55
742.87	37193.32
743.06	36757.93
743.25	37144.75
743.44	36848.77
743.63	37140.81
743.82	36831.90
744.01	36751.45
744.20	36591.96
744.39	36844.35
744.58	36630.13
744.77	36556.16
744.96	36211.28
745.15	36617.60
745.34	36260.35
745.53	36478.34
745.72	36104.30
745.91	36199.98
746.10	35928.83
746.29	36198.34
746.48	36087.26
746.67	36001.24
746.86	35983.30
747.04	35854.85
747.23	35619.34
747.42	35903.84
747.61	35546.18
747.80	36069.32
747.99	35316.07
748.18	35699.21
748.37	35562.08
748.56	35139.38
748.75	35196.96
748.94	35185.33
749.13	35150.84
749.32	34881.90
749.51	34915.33
749.70	34920.65
749.89	34716.84
750.08	34745.10
750.27	34376.88
750.46	34495.99
750.65	34846.60
750.84	34397.52
751.02	34500.98
751.21	34314.04
751.40	34393.42
751.59	34416.69
751.78	34259.57
751.97	34358.44
752.16	34078.45
752.35	34403.75
752.54	33935.99
752.73	34262.60
752.92	33830.72
753.11	33825.64
753.30	33844.90
753.49	33912.23
753.67	33624.86
753.86	33378.94
754.05	33582.51
754.24	33218.38
754.43	33233.78
754.62	33227.56
754.81	32980.41
755.00	33124.34
755.19	32932.24
755.38	32608.33
755.56	32930.19
755.75	33022.51
755.94	32544.93
756.13	32564.26
756.32	32686.48
756.51	32389.69
756.70	32511.83
756.89	32398.21
757.08	32138.12
757.26	32210.53
757.45	32019.66
757.64	31902.19
757.83	32149.59
758.02	31827.73
758.21	31720.17
758.40	31761.21
758.59	31730.41
758.77	31462.78
758.96	31476.05
759.15	31562.48
759.34	31179.51
759.53	31288.70
759.72	31263.47
759.91	30914.83
760.09	31078.99
760.28	31160.83
760.47	30677.26
760.66	31041.55
760.85	30524.89
761.04	30860.84
761.23	30616.72
761.41	30507.85
761.60	30630.32
761.79	30421.84
761.98	30084.50
762.17	30339.67
762.36	29900.51
762.54	30179.77
762.73	29975.71
762.92	29839.07
763.11	30070.33
763.30	30112.02
763.49	29977.02
763.67	29862.09
763.86	29819.57
764.05	29972.68
764.24	29655.08
764.43	29850.62
764.61	29347.06
764.80	29395.97
764.99	29716.76
765.18	29175.77
765.37	29341.49
765.55	29341.17
765.74	29115.07
765.93	28918.88
766.12	29070.83
766.31	28908.80
766.49	28872.59
766.68	28851.37
766.87	28722.43
767.06	28542.62
767.25	28613.07
767.43	28506.25
767.62	28260.00
767.81	28401.23
768.00	28202.99
768.19	28015.31
768.37	28062.17
768.56	28016.29
768.75	28072.65
768.94	28112.47
769.12	27750.63
769.31	27665.68
769.50	27677.97
769.69	27768.41
769.88	27340.96
770.06	27777.75
770.25	27353.49
770.44	27337.76
770.63	27472.35
770.81	27361.76
771.00	27101.92
771.19	27188.34
771.38	27094.22
771.56	27186.13
771.75	26665.54
771.94	27045.15
772.13	26898.19
772.31	26747.86
772.50	26991.00
772.69	26734.43
772.88	26947.01
773.06	26500.06
773.25	26605.65
773.44	26600.49
773.62	26405.85
773.81	26483.43
774.00	26315.25
774.19	26356.54
774.37	26135.44
774.56	26360.72
774.75	25951.70
774.94	26169.68
775.12	25919.99
775.31	26024.03
775.50	25914.18
775.68	25784.42
775.87	25607.64
776.06	25516.63
776.25	25682.10
776.43	25444.70
776.62	25643.93
776.81	25295.77
776.99	25449.94
777.18	25334.11
777.37	25105.15
777.55	25219.51
777.74	25287.34
777.93	25193.46
778.12	25165.93
778.30	24928.04
778.49	24988.82
778.68	25106.21
778.86	24908.22
779.05	25025.52
779.24	24977.52
779.42	24796.89
779.61	24715.13
779.80	24812.94
779.98	24811.80
780.17	24839.98
780.36	24572.43
780.54	24810.16
780.73	24284.16
780.92	24670.49
781.10	24403.10
781.29	24300.38
781.48	24134.33
781.66	24193.47
781.85	24185.45
782.04	24023.82
782.22	24050.20
782.41	23988.92
782.60	24077.72
782.78	23963.61
782.97	24056.75
783.16	23730.06
783.34	23744.89
783.53	23741.28
783.71	23604.64
783.90	23643.96
784.09	23603.90
784.27	23574.91
784.46	23512.97
784.65	23549.67
784.83	23352.33
785.02	23262.71
785.20	23459.32
785.39	23064.88
785.58	23453.42
785.76	23353.64
785.95	23247.97
786.14	23269.76
786.32	23276.48
786.51	23220.12
786.69	23292.29
786.88	23229.62
787.07	23160.89
787.25	23194.31
787.44	23151.06
787.62	23047.76
787.81	23188.66
788.00	23038.17
788.18	22940.77
788.37	22838.87
788.55	23189.31
788.74	22836.98
788.93	23008.60
789.11	23084.62
789.30	22968.13
789.48	22727.13
789.67	22928.89
789.86	22789.30
790.04	22878.68
790.23	22757.36
790.41	22662.99
790.60	22814.04
790.78	22772.18
790.97	22547.32
791.16	22719.92
791.34	22915.13
791.53	22523.15
791.71	22854.76
791.90	22590.49
792.08	22716.89
792.27	22721.97
792.46	22719.18
792.64	22758.59
792.83	22630.14
793.01	22707.22
793.20	22664.13
793.38	22647.50
793.57	22585.00
793.75	22639.97
793.94	22715.66
794.12	22769.15
794.31	22611.87
794.50	22778.33
794.68	22888.51
794.87	22722.87
795.05	22912.02
795.24	22664.21
795.42	22646.03
795.61	22867.70
795.79	22858.44
795.98	22630.96
796.16	22791.03
796.35	22769.40
796.53	22547.89
796.72	22763.17
796.90	22628.01
797.09	22582.71
797.27	22560.34
797.46	22546.83
797.64	22668.72
797.83	22600.97
798.01	22661.84
798.20	22746.05
798.38	22594.91
798.57	22771.36
798.75	22722.87
798.94	22433.37
799.12	22964.45
799.31	22705.09
799.49	22652.34
799.68	22611.62
799.86	22553.30
800.05	22544.04
800.23	22504.39
800.42	22465.97
800.60	22672.32
800.79	22385.94
800.97	22460.97
801.16	22681.91
801.34	22334.98
801.53	22387.00
801.71	22411.00
801.90	22242.09
802.08	22467.86
802.27	22307.79
802.45	22157.71
802.64	22303.12
802.82	22400.44
803.00	22191.63
803.19	22335.72
803.37	22527.74
803.56	22264.45
803.74	22204.00
803.93	22338.51
804.11	22206.86
804.30	22097.17
804.48	22259.29
804.67	22310.90
804.85	22198.67
805.03	22391.26
805.22	22157.14
805.40	22049.25
805.59	22251.18
805.77	22277.39
805.96	22129.04
806.14	22060.64
806.32	22157.06
806.51	22325.48
806.69	22179.26
806.88	22121.09
807.06	22077.27
807.25	22100.04
807.43	22125.93
807.61	22141.57
807.80	21981.42
807.98	22085.79
808.17	22009.68
808.35	21907.53
808.53	22143.54
808.72	21960.61
808.90	21919.90
809.09	22018.70
809.27	21970.36
809.45	21714.04
809.64	21982.57
809.82	21804.97
810.01	21773.68
810.19	21876.24
810.37	21785.39
810.56	21740.42
810.74	21895.90
810.93	21621.88
811.11	21752.05
811.29	21597.14
811.48	21762.62
811.66	21702.00
811.84	21692.58
812.03	21613.61
812.21	21662.10
812.40	21801.69
812.58	21816.52
812.76	21630.24
812.95	21765.40
813.13	21493.19
813.31	21630.07
813.50	21667.26
813.68	21564.87
813.86	21667.26
814.05	21752.54
814.23	21465.66
814.42	21661.20
814.60	21473.69
814.78	21562.16
814.97	21618.69
815.15	21456.98
815.33	21642.03
815.52	21468.45
815.70	21482.29
815.88	21546.02
816.07	21370.55
816.25	21454.27
816.43	21490.24
816.62	21217.04
816.80	21353.51
816.98	21346.80
817.17	21256.52
817.35	21285.60
817.53	21275.94
817.72	21429.86
817.90	21114.56
818.08	21161.66
818.26	21276.02
818.45	21146.34
818.63	21258.73
818.81	21219.58
819.00	21031.57
819.18	21255.62
819.36	21206.72
819.55	21205.32
819.73	21089.74
819.91	21303.30
820.09	21228.02
820.28	21304.77
820.46	21081.87
820.64	21416.35
820.83	21115.87
821.01	21191.64
821.19	21084.08
821.38	21192.79
821.56	21062.87
821.74	21192.87
821.92	21084.41
822.11	21260.46
822.29	20946.46
822.47	21017.89
822.65	21117.92
822.84	21168.38
823.02	20958.67
823.20	21215.65
823.39	20957.52
823.57	21033.21
823.75	21080.73
823.93	20985.04
824.12	21063.36
824.30	20898.21
824.48	20900.83
824.66	21065.98
824.85	20676.78
825.03	20978.90
825.21	21052.95
825.39	20882.15
825.58	20971.86
825.76	20913.37
825.94	20970.95
826.12	20967.27
826.31	20830.96
826.49	20942.69
826.67	20931.22
826.85	20863.15
827.03	20921.80
827.22	20991.43
827.40	20786.23
827.58	20799.66
827.76	20871.67
827.95	20782.46
828.13	20824.89
828.31	20751.82
828.49	20841.60
828.67	20809.98
828.86	20694.23
829.04	20813.67
829.22	20695.71
829.40	20671.46
829.58	20611.74
829.77	20682.19
829.95	20726.10
830.13	20740.35
830.31	20702.34
830.49	20717.17
830.68	20815.55
830.86	20717.66
831.04	20648.52
831.22	20780.08
831.40	20673.10
831.59	20803.68
831.77	20561.44
831.95	20773.61
832.13	20536.05
832.31	20696.36
832.50	20616.98
832.68	20591.10
832.86	20589.21
833.04	20754.52
833.22	20435.70
833.40	20826.70
833.59	20596.59
833.77	20829.89
833.95	20355.42
834.13	20881.58
834.31	20587.98
834.49	20710.62
834.67	20577.66
834.86	20700.79
835.04	20626.49
835.22	20743.06
835.40	20709.55
835.58	20601.09
835.76	20688.66
835.95	20633.94
836.13	20572.01
836.31	20517.12
836.49	20674.49
836.67	20670.89
836.85	20641.07
837.03	20586.43
837.21	20620.83
837.40	20485.83
837.58	20319.45
837.76	20515.90
837.94	20481.41
838.12	20609.53
838.30	20471.09
838.48	20471.99
838.66	20426.11
838.85	20499.59
839.03	20486.32
839.21	20476.33
839.39	20463.88
839.57	20527.04
839.75	20466.42
839.93	20540.39
840.11	20524.01
840.29	20419.07
840.47	20488.94
840.66	20449.46
840.84	20406.21
841.02	20302.82
841.20	20412.76
841.38	20363.44
841.56	20368.20
841.74	20642.79
841.92	20369.92
842.10	20391.62
842.28	20492.71
842.46	20366.07
842.65	20403.26
842.83	20529.49
843.01	20676.87
843.19	20425.70
843.37	20545.39
843.55	20419.97
843.73	20513.19
843.91	20525.89
844.09	20391.13
844.27	20528.35
844.45	20301.43
844.63	20332.07
844.81	20325.27
844.99	20379.58
845.17	20274.24
845.35	20423.66
845.54	20273.42
845.72	20435.45
845.90	20333.13
846.08	20385.32
846.26	20180.03
846.44	20404.57
846.62	20152.50
846.80	20213.86
846.98	20178.88
847.16	20251.63
847.34	20306.18
847.52	20290.46
847.70	20211.81
847.88	20334.04
848.06	20195.92
848.24	20317.08
848.42	20290.62
848.60	20191.42
848.78	20308.89
848.96	20242.29
849.14	20243.93
849.32	20308.56
849.50	20047.48
849.68	20236.55
849.86	20236.47
850.04	20126.78
850.22	20091.72
850.40	20034.87
850.58	20125.31
850.76	20438.81
850.94	19908.14
851.12	20173.48
851.30	20095.73
851.48	20266.21
851.66	20044.54
851.84	20037.82
852.02	20036.02
852.20	20110.48
852.38	19880.86
852.56	20028.23
852.74	19966.06
852.92	19941.32
853.10	19869.15
853.28	20074.03
853.46	19641.33
853.64	19892.49
853.82	19750.45
854.00	19825.81
854.18	19727.18
854.36	19717.43
854.54	19832.53
854.72	19688.93
854.90	19634.86
855.07	19824.01
855.25	19786.33
855.43	19886.19
855.61	19776.17
855.79	19716.94
855.97	19892.49
856.15	19829.99
856.33	19785.84
856.51	19906.17
856.69	19722.51
856.87	19926.74
857.05	19783.87
857.23	19861.20
857.41	19710.63
857.59	19770.19
857.77	19797.80
857.94	19781.08
858.12	19908.06
858.30	19765.27
858.48	19717.19
858.66	19643.71
858.84	19835.31
859.02	19580.71
859.20	19586.86
859.38	19826.63
859.56	19740.62
859.74	19633.71
859.92	19660.09
860.09	19565.06
860.27	19642.23
860.45	19395.82
860.63	19436.53
860.81	19573.01
860.99	19440.22
861.17	19255.25
861.35	18963.21
861.53	18865.48
861.70	18813.79
861.88	19202.08
862.06	19248.69
862.24	18879.24
862.42	18972.71
862.60	19229.85
862.78	19255.90
862.96	19368.38
863.14	19246.97
863.31	19256.97
863.49	19265.82
863.67	19286.46
863.85	19255.90
864.03	19372.56
864.21	19267.78
864.39	19306.61
864.56	19106.32
864.74	19237.88
864.92	19055.45
865.10	19028.50
865.28	19086.74
865.46	19294.00
865.64	18917.09
865.81	19167.19
865.99	18864.25
866.17	19121.56
866.35	19020.55
866.53	18988.44
866.71	19033.00
866.88	19066.92
867.06	18859.91
867.24	18913.48
867.42	18793.47
867.60	18837.38
867.78	18690.66
867.95	18847.13
868.13	18593.10
868.31	18737.03
868.49	18695.82
868.67	18609.07
868.84	18625.54
869.02	18710.24
869.20	18376.10
869.38	18596.05
869.56	18454.66
869.73	18413.04
869.91	18531.17
870.09	18483.82
870.27	18371.26
870.45	18505.45
870.62	18312.36
870.80	18488.73
870.98	18433.60
871.16	18415.58
871.34	18369.79
871.51	18462.60
871.69	18311.46
871.87	18317.93
872.05	18248.38
872.23	18251.33
872.40	18107.57
872.58	18182.77
872.76	18068.41
872.94	18026.06
873.11	18040.47
873.29	17952.82
873.47	18037.69
873.65	17975.02
873.83	18041.95
874.00	18035.56
874.18	18068.33
874.36	17992.80
874.54	17996.16
874.71	17829.29
874.89	17665.86
875.07	17847.47
875.25	17781.78
875.42	17709.52
875.60	17719.11
875.78	17844.77
875.96	17674.22
876.13	17848.13
876.31	17601.23
876.49	17608.52
876.66	17507.76
876.84	17749.42
877.02	17604.75
877.20	17594.92
877.37	17615.81
877.55	17551.34
877.73	17486.05
877.91	17445.91
878.08	17614.74
878.26	17538.48
878.44	17498.58
878.61	17488.83
878.79	17349.16
878.97	17460.41
879.15	17521.11
879.32	17495.47
879.50	17436.00
879.68	17597.87
879.85	17375.54
880.03	17530.86
880.21	17329.67
880.38	17480.64
880.56	17387.01
880.74	17542.65
880.92	17305.34
881.09	17419.53
881.27	17473.19
881.45	17440.67
881.62	17402.08
881.80	17300.26
881.98	17209.33
882.15	17407.90
882.33	17209.41
882.51	17266.59
882.68	17154.03
882.86	17292.07
883.04	17087.92
883.21	17122.17
883.39	17241.28
883.57	17081.78
883.74	17129.37
883.92	17185.41
884.10	17182.79
884.27	17111.93
884.45	16990.77
884.63	17228.99
884.80	17106.76
884.98	17103.57
885.16	17089.56
885.33	17034.84
885.51	17141.09
885.69	17078.01
885.86	17026.32
886.04	17078.99
886.21	16865.84
886.39	17079.65
886.57	16852.73
886.74	17048.52
886.92	17040.98
887.10	17086.86
887.27	17044.67
887.45	17012.15
887.62	16960.13
887.80	16949.15
887.98	17154.03
888.15	17125.85
888.33	16973.57
888.51	17118.56
888.68	17036.40
888.86	17027.88
889.03	16990.93
889.21	17094.80
889.39	17073.01
889.56	17075.55
889.74	17031.24
889.91	17007.64
890.09	17009.28
890.27	17040.82
890.44	16984.38
890.62	17021.41
890.79	16990.11
890.97	17016.00
891.14	16965.78
891.32	16991.10
891.50	16890.25
891.67	16984.87
891.85	16866.74
892.02	16864.20
892.20	16941.45
892.38	16909.59
892.55	16812.51
892.73	16921.55
892.90	16806.78
893.08	16788.18
893.25	16779.50
893.43	16963.49
893.60	16754.02
893.78	16875.43
893.96	16771.96
894.13	16850.93
894.31	16941.13
894.48	16835.94
894.66	16884.19
894.83	16824.47
895.01	16812.59
895.18	16864.78
895.36	16763.93
895.53	16858.80
895.71	16741.08
895.89	16757.14
896.06	16641.63
896.24	16720.52
896.41	16661.54
896.59	16683.82
896.76	16493.11
896.94	16571.59
897.11	16616.07
897.29	16659.57
897.46	16457.07
897.64	16534.07
897.81	16446.66
897.99	16358.44
898.16	16565.61
898.34	16476.73
898.51	16398.66
898.69	16333.94
898.86	16436.26
899.04	16447.56
899.21	16294.21
899.39	16358.52
899.56	16289.05
899.74	16424.79
899.91	16247.68
900.09	16194.60
900.26	16176.09
900.44	16113.66
900.61	16051.49
900.79	16283.48
900.96	16097.61
901.14	16070.82
901.31	16002.34
901.49	16007.01
901.66	16016.84
901.84	15986.77
902.01	15891.66
902.19	15920.50
902.36	15814.99
902.54	15838.83
902.71	15780.83
902.88	15853.82
903.06	15625.76
903.23	15846.12
903.41	15658.36
903.58	15660.41
903.76	15514.51
903.93	15602.65
904.11	15689.41
904.28	15594.05
904.45	15607.08
904.63	15472.24
904.80	15344.36
904.98	15448.07
905.15	15275.39
905.33	15400.89
905.50	15256.47
905.68	15299.64
905.85	15208.05
906.02	15177.58
906.20	15246.47
906.37	15092.30
906.55	14997.60
906.72	15119.58
906.90	14940.59
907.07	14842.94
907.24	14887.59
907.42	14817.38
907.59	14719.65
907.77	14723.42
907.94	14662.64
908.11	14688.93
908.29	14615.45
908.46	14595.38
908.64	14530.58
908.81	14545.74
908.98	14401.73
909.16	14475.53
909.33	14332.59
909.51	14275.65
909.68	14238.95
909.85	14240.35
910.03	14266.23
910.20	14104.52
910.37	14068.81
910.55	14009.99
910.72	13978.29
910.90	13911.77
911.07	13886.70
911.24	13788.89
911.42	13929.38
911.59	13740.89
911.76	13722.78
911.94	13653.97
912.11	13619.32
912.29	13628.09
912.46	13513.56
912.63	13564.68
912.81	13425.01
912.98	13485.63
913.15	13326.21
913.33	13409.85
913.50	13300.16
913.67	13265.10
913.85	13223.24
914.02	13269.77
914.19	13173.03
914.37	13113.06
914.54	13141.00
914.71	13090.86
914.89	13039.25
915.06	13012.47
915.23	12925.06
915.41	12939.07
915.58	12857.89
915.75	12779.82
915.93	12764.42
916.10	12713.95
916.27	12621.88
916.45	12582.15
916.62	12556.75
916.79	12607.87
916.97	12500.72
917.14	12499.41
917.31	12422.65
917.49	12463.94
917.66	12423.80
917.83	12393.41
918.00	12331.39
918.18	12304.77
918.35	12210.15
918.52	12293.14
918.70	12147.65
918.87	12123.89
919.04	12121.68
919.21	12049.18
919.39	11970.38
919.56	12010.35
919.73	11874.45
919.91	11931.38
920.08	11887.56
920.25	11741.50
920.42	11876.17
920.60	11675.96
920.77	11651.63
920.94	11701.77
921.11	11504.42
921.29	11597.97
921.46	11395.64
921.63	11527.69
921.81	11367.37
921.98	11394.16
922.15	11379.25
922.32	11427.91
922.50	11301.84
922.67	11346.81
922.84	11256.21
923.01	11221.89
923.19	11189.12
923.36	11175.44
923.53	11002.75
923.70	11031.83
923.87	10967.53
924.05	10995.71
924.22	10843.58
924.39	10894.29
924.56	10790.58
924.74	10798.61
924.91	10804.92
925.08	10771.09
925.25	10743.23
925.43	10720.71
925.60	10637.89
925.77	10751.02
925.94	10617.98
926.11	10644.93
926.29	10544.66
926.46	10573.91
926.63	10492.81
926.80	10521.97
926.97	10415.89
927.15	10423.01
927.32	10323.65
927.49	10348.30
927.66	10281.79
927.83	10314.23
928.01	10198.56
928.18	10197.90
928.35	10123.85
928.52	10140.97
928.69	10023.99
928.87	10015.55
929.04	9969.02
929.21	9989.17
929.38	9899.88
929.55	9914.54
929.72	9829.59
929.90	9837.13
930.07	9820.83
930.24	9738.34
930.41	9718.76
930.58	9692.22
930.75	9689.43
930.93	9601.86
931.10	9611.94
931.27	9512.81
931.44	9527.31
931.61	9499.38
931.78	9528.30
931.95	9476.36
932.13	9383.96
932.30	9479.06
932.47	9327.19
932.64	9396.24
932.81	9332.59
932.98	9353.73
933.15	9323.01
933.33	9243.30
933.50	9281.39
933.67	9193.41
933.84	9205.70
934.01	9190.63
934.18	9161.71
934.35	9140.66
934.52	9145.82
934.70	9128.62
934.87	9115.10
935.04	9047.27
935.21	9017.45
935.38	8978.13
935.55	8954.29
935.72	8986.49
935.89	8905.31
936.06	8903.99
936.24	8817.32
936.41	8892.44
936.58	8853.45
936.75	8787.75
936.92	8792.34
937.09	8778.41
937.26	8691.66
937.43	8707.96
937.60	8688.38
937.77	8695.02
937.94	8664.63
938.12	8681.42
938.29	8563.21
938.46	8595.08
938.63	8496.78
938.80	8584.02
938.97	8485.55
939.14	8467.78
939.31	8455.24
939.48	8426.98
939.65	8350.22
939.82	8301.97
939.99	8348.59
940.16	8317.46
940.33	8275.51
940.50	8250.28
940.67	8245.94
940.85	8250.04
941.02	8211.78
941.19	8197.61
941.36	8196.05
941.53	8170.82
941.70	8128.06
941.87	8083.00
942.04	8105.29
942.21	8080.71
942.38	8032.95
942.55	7988.22
942.72	8024.19
942.89	7969.55
943.06	7906.14
943.23	7934.24
943.40	7862.48
943.57	7913.43
943.74	7859.69
943.91	7829.30
944.08	7829.55
944.25	7839.79
944.42	7750.58
944.59	7732.56
944.76	7756.56
944.93	7732.97
945.10	7719.45
945.27	7693.15
945.44	7599.52
945.61	7637.94
945.78	7608.12
945.95	7609.43
946.12	7527.76
946.29	7567.90
946.46	7515.88
946.63	7480.66
946.80	7481.97
946.97	7469.68
947.14	7442.73
947.31	7480.25
947.48	7425.77
947.65	7412.09
947.82	7423.31
947.99	7416.19
948.16	7329.68
948.33	7436.42
948.50	7312.72
948.67	7321.82
948.84	7305.35
949.01	7272.58
949.18	7239.24
949.35	7292.98
949.52	7210.98
949.68	7236.78
949.85	7204.67
950.02	7185.50
950.19	7108.25
950.36	7128.98
950.53	7110.63
950.70	7094.82
950.87	7068.52
951.04	7117.84
951.21	7017.00
951.38	7043.05
951.55	7018.55
951.72	7023.63
951.89	6999.47
952.06	7018.63
952.23	6976.28
952.39	6941.79
952.56	6861.84
952.73	6951.79
952.90	6884.12
953.07	6915.34
953.24	6813.02
953.41	6839.72
953.58	6784.67
953.75	6825.55
953.92	6771.98
954.09	6764.36
954.25	6701.61
954.42	6709.64
954.59	6682.60
954.76	6654.59
954.93	6656.88
955.10	6659.58
955.27	6642.63
955.44	6653.69
955.61	6597.57
955.77	6648.44
955.94	6585.78
956.11	6590.69
956.28	6577.58
956.45	6590.94
956.62	6568.57
956.79	6581.76
956.96	6559.73
957.12	6558.25
957.29	6540.80
957.46	6502.30
957.63	6486.24
957.80	6479.45
957.97	6461.01
958.14	6493.45
958.30	6387.70
958.47	6404.08
958.64	6364.60
958.81	6414.32
958.98	6334.78
959.15	6328.47
959.32	6354.85
959.48	6335.02
959.65	6275.22
959.82	6288.41
959.99	6251.47
960.16	6276.70
960.33	6258.10
960.49	6226.73
960.66	6220.99
960.83	6180.93
961.00	6221.07
961.17	6204.12
961.33	6175.12
961.50	6183.31
961.67	6157.34
961.84	6171.43
962.01	6127.19
962.18	6153.98
962.34	6104.50
962.51	6115.64
962.68	6071.00
962.85	6113.02
963.02	6073.78
963.18	6070.43
963.35	6036.59
963.52	6051.26
963.69	6031.51
963.86	6007.59
964.02	5973.52
964.19	6040.85
964.36	5975.97
964.53	5974.01
964.69	5900.85
964.86	5980.40
965.03	5908.55
965.20	5917.56
965.37	5858.58
965.53	5868.09
965.70	5843.51
965.87	5853.01
966.04	5803.37
966.20	5833.52
966.37	5783.55
966.54	5755.45
966.71	5775.19
966.87	5775.85
967.04	5760.61
967.21	5746.68
967.38	5727.35
967.54	5762.82
967.71	5731.28
967.88	5728.74
968.05	5715.80
968.21	5683.03
968.38	5662.47
968.55	5675.33
968.72	5634.13
968.88	5610.78
969.05	5643.14
969.22	5629.95
969.39	5598.82
969.55	5607.01
969.72	5560.81
969.89	5586.37
970.05	5592.27
970.22	5594.31
970.39	5547.05
970.56	5571.29
970.72	5537.30
970.89	5537.54
971.06	5526.40
971.22	5514.36
971.39	5511.00
971.56	5535.99
971.73	5469.55
971.89	5524.35
972.06	5476.51
972.23	5460.05
972.39	5415.40
972.56	5435.55
972.73	5383.95
972.89	5443.26
973.06	5426.30
973.23	5420.81
973.39	5390.91
973.56	5401.89
973.73	5379.93
973.89	5385.91
974.06	5348.48
974.23	5381.41
974.39	5337.99
974.56	5341.43
974.73	5290.48
974.89	5280.15
975.06	5286.54
975.23	5316.61
975.39	5245.34
975.56	5297.60
975.73	5255.42
975.89	5247.88
976.06	5231.99
976.23	5212.98
976.39	5215.03
976.56	5222.48
976.73	5208.48
976.89	5209.70
977.06	5154.25
977.23	5160.06
977.39	5164.90
977.56	5171.61
977.72	5126.31
977.89	5148.43
978.06	5144.58
978.22	5134.83
978.39	5111.24
978.56	5113.20
978.72	5081.58
978.89	5113.78
979.05	5094.28
979.22	5066.10
979.39	5050.70
979.55	5058.89
979.72	5015.64
979.88	5060.78
980.05	5004.01
980.22	5040.46
980.38	5022.19
980.55	4999.91
980.71	4972.39
980.88	5001.88
981.05	5001.71
981.21	4982.63
981.38	4940.68
981.54	4988.61
981.71	4964.93
981.88	4946.58
982.04	4962.80
982.21	4954.04
982.37	4937.08
982.54	4949.45
982.70	4904.07
982.87	4921.92
983.04	4886.62
983.20	4915.45
983.37	4873.35
983.53	4864.09
983.70	4874.82
983.86	4873.10
984.03	4854.91
984.20	4864.66
984.36	4846.23
984.53	4860.89
984.69	4822.07
984.86	4819.53
985.02	4805.11
985.19	4800.77
985.35	4784.55
985.52	4778.65
985.68	4759.56
985.85	4781.52
986.02	4758.17
986.18	4741.21
986.35	4745.88
986.51	4768.90
986.68	4751.04
986.84	4772.01
987.01	4732.86
987.17	4725.97
987.34	4714.75
987.50	4731.71
987.67	4709.67
987.83	4722.29
988.00	4685.26
988.16	4664.86
988.33	4653.48
988.49	4701.15
988.66	4668.14
988.82	4656.26
988.99	4646.51
989.15	4644.22
989.32	4610.47
989.48	4618.99
989.65	4587.12
989.81	4593.18
989.98	4573.11
990.14	4568.36
990.31	4586.47
990.47	4584.42
990.64	4580.40
990.80	4562.06
990.97	4548.21
991.13	4555.67
991.30	4555.09
991.46	4540.43
991.63	4529.04
991.79	4543.13
991.95	4482.43
992.12	4548.95
992.28	4493.57
992.45	4499.96
992.61	4508.23
992.78	4495.54
992.94	4471.86
993.11	4489.31
993.27	4472.19
993.44	4463.67
993.60	4466.37
993.76	4464.65
993.93	4467.68
994.09	4456.05
994.26	4441.88
994.42	4443.60
994.59	4393.14
994.75	4447.37
994.91	4399.61
995.08	4391.91
995.24	4383.23
995.41	4388.39
995.57	4379.70
995.74	4362.75
995.90	4371.10
996.06	4360.70
996.23	4349.15
996.39	4346.12
996.56	4342.76
996.72	4354.06
996.88	4332.11
997.05	4339.07
997.21	4338.91
997.38	4348.90
997.54	4315.56
997.70	4326.29
997.87	4342.84
998.03	4303.68
998.20	4274.68
998.36	4290.49
998.52	4285.91
998.69	4316.38
998.85	4272.14
999.02	4296.72
999.18	4255.27
999.34	4269.93
999.51	4268.70
999.67	4284.51
999.83	4242.41
1000.00	4255.92
1000.16	4235.45
1000.33	4214.88
1000.49	4220.70
1000.65	4213.82
1000.82	4224.63
1000.98	4203.33
1001.14	4206.94
1001.31	4223.24
1001.47	4208.33
1001.63	4190.55
1001.80	4179.49
1001.96	4187.44
1002.12	4162.54
1002.29	4181.38
1002.45	4156.39
1002.61	4178.51
1002.78	4141.16
1002.94	4150.25
1003.10	4129.03
1003.27	4146.81
1003.43	4125.26
1003.59	4133.46
1003.76	4130.10
1003.92	4119.53
1004.08	4116.25
1004.25	4149.02
1004.41	4102.90
1004.57	4109.37
1004.74	4108.06
1004.90	4107.49
1005.06	4089.96
1005.23	4095.94
1005.39	4100.36
1005.55	4108.80
1005.71	4063.83
1005.88	4083.90
1006.04	4090.29
1006.20	4094.38
1006.37	4037.20
1006.53	4053.91
1006.69	4050.72
1006.85	4076.20
1007.02	4017.21
1007.18	4041.87
1007.34	4022.87
1007.51	4029.26
1007.67	3997.80
1007.83	4022.46
1007.99	4011.64
1008.16	4016.15
1008.32	3988.62
1008.48	4009.43
1008.64	3991.49
1008.81	3989.44
1008.97	3979.04
1009.13	3988.46
1009.29	3975.19
1009.46	3982.97
1009.62	3979.94
1009.78	3978.71
1009.95	3950.45
1010.11	3972.57
1010.27	3945.45
1010.43	3953.73
1010.59	3940.29
1010.76	3962.25
1010.92	3906.79
1011.08	3924.81
1011.24	3898.19
1011.41	3960.69
1011.57	3927.27
1011.73	3926.04
1011.89	3889.42
1012.06	3937.92
1012.22	3877.46
1012.38	3912.77
1012.54	3885.16
1012.70	3852.07
1012.87	3852.15
1013.03	3892.45
1013.19	3881.47
1013.35	3877.13
1013.51	3850.75
1013.68	3882.78
1013.84	3850.51
1014.00	3857.06
1014.16	3837.40
1014.32	3840.60
1014.49	3835.68
1014.65	3855.18
1014.81	3822.66
1014.97	3836.91
1015.13	3813.97
1015.30	3840.02
1015.46	3825.11
1015.62	3814.30
1015.78	3788.82
1015.94	3817.82
1016.10	3776.95
1016.27	3788.25
1016.43	3774.49
1016.59	3804.39
1016.75	3802.26
1016.91	3783.09
1017.07	3787.84
1017.24	3775.31
1017.40	3754.91
1017.56	3791.77
1017.72	3764.00
1017.88	3770.15
1018.04	3736.89
1018.21	3764.74
1018.37	3771.62
1018.53	3795.54
1018.69	3757.20
1018.85	3739.26
1019.01	3726.65
1019.17	3763.51
1019.34	3739.67
1019.50	3733.61
1019.66	3716.33
1019.82	3704.94
1019.98	3711.66
1020.14	3732.96
1020.30	3712.97
1020.46	3715.26
1020.63	3714.20
1020.79	3717.39
1020.95	3713.05
1021.11	3705.02
1021.27	3684.38
1021.43	3693.39
1021.59	3697.32
1021.75	3698.06
1021.91	3684.38
1022.07	3672.75
1022.24	3674.55
1022.40	3668.40
1022.56	3673.15
1022.72	3685.11
1022.88	3648.74
1023.04	3656.77
1023.20	3648.17
1023.36	3642.44
1023.52	3639.16
1023.68	3647.10
1023.84	3629.16
1024.01	3643.09
1024.17	3624.00
1024.33	3623.59
1024.49	3622.86
1024.65	3626.87
1024.81	3625.64
1024.97	3638.01
1025.13	3604.92
1025.29	3636.95
1025.45	3591.48
1025.61	3614.42
1025.77	3610.73
1025.93	3609.91
1026.09	3605.65
1026.25	3615.65
1026.41	3590.83
1026.57	3599.67
1026.73	3600.41
1026.90	3596.32
1027.06	3588.78
1027.22	3589.93
1027.38	3607.37
1027.54	3600.98
1027.70	3588.37
1027.86	3600.33
1028.02	3588.94
1028.18	3586.98
1028.34	3584.85
1028.50	3581.41
1028.66	3572.97
1028.82	3598.36
1028.98	3576.08
1029.14	3546.75
1029.30	3574.93
1029.46	3572.39
1029.62	3573.38
1029.78	3544.79
1029.94	3554.86
1030.10	3559.12
1030.26	3529.22
1030.42	3541.59
1030.58	3538.97
1030.74	3543.97
1030.90	3519.97
1031.06	3530.78
1031.22	3531.27
1031.38	3537.91
1031.54	3515.54
1031.70	3529.14
1031.86	3513.25
1032.02	3503.66
1032.18	3493.43
1032.34	3513.41
1032.50	3498.01
1032.66	3519.88
1032.82	3500.39
1032.98	3520.62
1033.14	3503.42
1033.30	3513.50
1033.45	3489.57
1033.61	3500.22
1033.77	3493.34
1033.93	3504.48
1034.09	3479.74
1034.25	3491.54
1034.41	3499.08
1034.57	3466.47
1034.73	3483.76
1034.89	3496.54
1035.05	3493.83
1035.21	3485.64
1035.37	3454.76
1035.53	3471.14
1035.69	3466.97
1035.85	3475.81
1036.01	3447.71
1036.16	3481.14
1036.32	3468.03
1036.48	3481.38
1036.64	3441.65
1036.80	3473.03
1036.96	3463.12
1037.12	3441.32
1037.28	3448.45
1037.44	3447.96
1037.60	3426.17
1037.76	3450.09
1037.91	3448.29
1038.07	3445.50
1038.23	3444.77
1038.39	3434.77
1038.55	3429.45
1038.71	3441.00
1038.87	3436.33
1039.03	3441.98
1039.19	3424.20
1039.35	3428.22
1039.50	3419.45
1039.66	3453.94
1039.82	3418.22
1039.98	3431.66
1040.14	3413.88
1040.30	3412.98
1040.46	3396.92
1040.62	3404.54
1040.77	3405.20
1040.93	3446.90
1041.09	3411.18
1041.25	3396.35
1041.41	3401.10
1041.57	3408.80
1041.73	3408.80
1041.88	3408.80

