SpectraSuite Data File
++++++++++++++++++++++++++++++++++++
Date: Tue Sep 20 11:48:48 EDT 2022
User: Laboratoire
Dark Spectrum Present: No
Reference Spectrum Present: No
Number of Sampled Component Spectra: 1
Spectrometers: FLMT00174
Integration Time (usec): 15000 (FLMT00174)
Spectra Averaged: 25 (FLMT00174)
Boxcar Smoothing: 0 (FLMT00174)
Correct for Electrical Dark: No (FLMT00174)
Strobe/Lamp Enabled: No (FLMT00174)
Correct for Detector Non-linearity: No (FLMT00174)
Correct for Stray Light: No (FLMT00174)
Number of Pixels in Processed Spectrum: 3648
>>>>>Begin Processed Spectral Data<<<<<
345.74	3154.45
345.96	3154.45
346.18	3154.45
346.39	3162.06
346.61	3210.64
346.83	3200.07
347.05	3209.90
347.27	3190.90
347.49	3204.33
347.71	3202.61
347.93	3217.85
348.15	3218.42
348.36	3208.84
348.58	3208.35
348.80	3217.85
349.02	3232.10
349.24	3209.41
349.46	3293.13
349.68	3308.94
349.90	3325.74
350.11	3323.12
350.33	3305.75
350.55	3308.94
350.77	3313.78
350.99	3301.65
351.21	3338.84
351.43	3297.56
351.65	3326.97
351.86	3311.48
352.08	3328.28
352.30	3291.99
352.52	3322.05
352.74	3293.22
352.96	3326.07
353.18	3313.61
353.39	3316.89
353.61	3317.79
353.83	3329.34
354.05	3324.67
354.27	3326.47
354.49	3326.07
354.70	3310.99
354.92	3306.24
355.14	3312.22
355.36	3300.92
355.58	3316.07
355.80	3310.66
356.02	3332.05
356.23	3320.99
356.45	3318.45
356.67	3318.69
356.89	3343.35
357.11	3310.58
357.33	3318.61
357.54	3301.33
357.76	3317.38
357.98	3312.88
358.20	3323.53
358.42	3307.63
358.63	3321.48
358.85	3323.36
359.07	3323.94
359.29	3300.67
359.51	3306.32
359.73	3299.11
359.94	3327.29
360.16	3303.37
360.38	3301.33
360.60	3307.47
360.82	3311.32
361.03	3329.51
361.25	3290.27
361.47	3320.58
361.69	3333.85
361.91	3320.49
362.12	3319.10
362.34	3332.70
362.56	3312.55
362.78	3296.57
363.00	3319.43
363.21	3314.51
363.43	3342.53
363.65	3300.67
363.87	3336.96
364.09	3329.67
364.30	3303.95
364.52	3315.17
364.74	3332.54
364.96	3315.25
365.17	3338.43
365.39	3305.59
365.61	3323.03
365.83	3308.04
366.05	3333.93
366.26	3293.05
366.48	3326.80
366.70	3333.85
366.92	3334.09
367.13	3324.10
367.35	3311.57
367.57	3327.13
367.79	3334.75
368.01	3315.58
368.22	3341.22
368.44	3329.92
368.66	3318.69
368.88	3346.14
369.09	3310.83
369.31	3314.92
369.53	3317.79
369.75	3314.27
369.96	3335.90
370.18	3328.44
370.40	3356.62
370.62	3343.35
370.83	3328.36
371.05	3339.34
371.27	3348.10
371.49	3327.46
371.70	3351.05
371.92	3329.75
372.14	3325.74
372.36	3322.38
372.57	3346.54
372.79	3342.86
373.01	3339.34
373.22	3324.84
373.44	3335.90
373.66	3339.34
373.88	3337.94
374.09	3321.81
374.31	3347.04
374.53	3330.00
374.75	3353.59
374.96	3346.22
375.18	3364.16
375.40	3356.95
375.61	3344.50
375.83	3344.01
376.05	3339.83
376.27	3346.46
376.48	3341.22
376.70	3346.54
376.92	3328.11
377.13	3327.70
377.35	3336.14
377.57	3344.66
377.79	3329.10
378.00	3330.24
378.22	3343.68
378.44	3337.21
378.65	3361.29
378.87	3343.76
379.09	3367.68
379.30	3331.06
379.52	3350.80
379.74	3346.71
379.96	3354.98
380.17	3352.85
380.39	3333.68
380.61	3342.28
380.82	3367.76
381.04	3350.48
381.26	3349.66
381.47	3366.21
381.69	3385.21
381.91	3353.51
382.12	3376.61
382.34	3358.83
382.56	3368.91
382.77	3364.89
382.99	3372.76
383.21	3367.27
383.42	3384.80
383.64	3374.81
383.86	3374.72
384.07	3380.54
384.29	3376.53
384.51	3376.53
384.72	3376.04
384.94	3376.61
385.16	3398.73
385.37	3399.05
385.59	3391.93
385.81	3392.01
386.02	3400.45
386.24	3399.22
386.46	3380.79
386.67	3414.46
386.89	3426.74
387.11	3419.29
387.32	3418.31
387.54	3403.31
387.76	3414.70
387.97	3448.62
388.19	3439.19
388.40	3427.56
388.62	3426.58
388.84	3444.19
389.05	3437.39
389.27	3430.59
389.49	3446.90
389.70	3434.44
389.92	3421.01
390.14	3436.08
390.35	3438.38
390.57	3436.82
390.78	3452.63
391.00	3429.20
391.22	3433.13
391.43	3433.95
391.65	3457.46
391.86	3464.02
392.08	3463.44
392.30	3442.88
392.51	3445.50
392.73	3474.17
392.95	3453.69
393.16	3446.90
393.38	3475.24
393.59	3447.71
393.81	3492.20
394.03	3464.92
394.24	3466.23
394.46	3472.70
394.67	3477.53
394.89	3475.32
395.11	3491.87
395.32	3500.14
395.54	3502.85
395.75	3487.12
395.97	3469.83
396.19	3474.34
396.40	3482.78
396.62	3484.74
396.83	3496.95
397.05	3487.94
397.26	3495.96
397.48	3510.79
397.70	3505.30
397.91	3516.20
398.13	3503.42
398.34	3505.88
398.56	3526.52
398.78	3521.69
398.99	3555.77
399.21	3528.90
399.42	3551.67
399.64	3532.58
399.85	3539.05
400.07	3557.08
400.29	3568.71
400.50	3563.47
400.72	3598.53
400.93	3571.66
401.15	3588.12
401.36	3585.26
401.58	3629.49
401.79	3625.48
402.01	3633.01
402.23	3616.30
402.44	3673.40
402.66	3656.28
402.87	3652.27
403.09	3655.46
403.30	3689.13
403.52	3651.36
403.73	3658.08
403.95	3683.48
404.16	3707.15
404.38	3702.65
404.60	3706.33
404.81	3732.22
405.03	3747.05
405.24	3763.18
405.46	3757.29
405.67	3763.84
405.89	3770.31
406.10	3768.43
406.32	3778.75
406.53	3805.95
406.75	3831.09
406.96	3840.27
407.18	3837.65
407.39	3810.04
407.61	3857.96
407.82	3859.27
408.04	3878.77
408.25	3862.22
408.47	3880.00
408.68	3895.81
408.90	3897.61
409.12	3899.50
409.33	3925.14
409.55	3900.15
409.76	3921.29
409.98	3905.72
410.19	3915.06
410.41	3935.62
410.62	3947.75
410.84	3911.95
411.05	3945.86
411.27	3958.07
411.48	3945.13
411.70	3949.88
411.91	3968.23
412.12	3964.62
412.34	3947.01
412.55	3934.72
412.77	3949.88
412.98	3962.41
413.20	3964.62
413.41	3958.48
413.63	3961.92
413.84	3966.67
414.06	3993.05
414.27	3961.18
414.49	3981.09
414.70	3962.66
414.92	3970.93
415.13	3977.56
415.35	3986.58
415.56	3980.43
415.78	3983.79
415.99	3987.15
416.21	3980.35
416.42	4015.90
416.63	4009.92
416.85	4017.46
417.06	4004.60
417.28	3998.04
417.49	4028.11
417.71	4027.13
417.92	4008.20
418.14	4011.48
418.35	4034.17
418.57	4035.24
418.78	4033.68
418.99	4017.38
419.21	4065.30
419.42	4052.77
419.64	4054.08
419.85	4071.28
420.07	4091.68
420.28	4068.41
420.50	4098.40
420.71	4100.12
420.92	4100.12
421.14	4133.62
421.35	4107.41
421.57	4134.52
421.78	4151.15
422.00	4161.55
422.21	4186.38
422.42	4198.91
422.64	4169.66
422.85	4228.56
423.07	4234.05
423.28	4252.89
423.50	4262.31
423.71	4268.87
423.92	4307.70
424.14	4290.66
424.35	4307.78
424.57	4342.27
424.78	4366.35
424.99	4362.58
425.21	4387.16
425.42	4411.41
425.64	4413.54
425.85	4450.32
426.06	4440.90
426.28	4465.55
426.49	4539.45
426.71	4536.74
426.92	4529.37
427.13	4586.06
427.35	4629.64
427.56	4627.84
427.78	4632.10
427.99	4677.07
428.20	4738.02
428.42	4731.22
428.63	4759.07
428.84	4750.47
429.06	4782.17
429.27	4841.07
429.49	4859.58
429.70	4943.88
429.91	4907.10
430.13	4941.18
430.34	4983.77
430.56	4991.88
430.77	5038.17
430.98	5020.88
431.20	5095.02
431.41	5129.42
431.62	5170.14
431.84	5114.60
432.05	5186.93
432.26	5217.08
432.48	5189.55
432.69	5294.82
432.91	5282.37
433.12	5322.43
433.33	5338.07
433.55	5406.80
433.76	5404.18
433.97	5370.02
434.19	5420.40
434.40	5475.12
434.61	5491.51
434.83	5524.44
435.04	5492.08
435.25	5569.25
435.47	5572.77
435.68	5533.69
435.89	5658.87
436.11	5604.88
436.32	5631.42
436.53	5600.05
436.75	5611.43
436.96	5607.91
437.17	5608.24
437.39	5636.75
437.60	5653.79
437.81	5664.68
438.03	5683.03
438.24	5667.22
438.45	5755.12
438.67	5669.11
438.88	5719.40
439.09	5779.53
439.31	5732.26
439.52	5752.83
439.73	5730.30
439.94	5678.20
440.16	5737.43
440.37	5691.39
440.58	5766.59
440.80	5765.77
441.01	5693.11
441.22	5822.29
441.44	5767.24
441.65	5755.86
441.86	5773.63
442.08	5789.44
442.29	5767.24
442.50	5808.61
442.71	5757.82
442.93	5771.18
443.14	5744.96
443.35	5813.77
443.57	5736.52
443.78	5803.94
443.99	5789.28
444.20	5743.98
444.42	5817.46
444.63	5799.52
444.84	5820.82
445.06	5863.17
445.27	5818.44
445.48	5768.55
445.69	5834.50
445.91	5800.99
446.12	5807.55
446.33	5820.16
446.54	5889.47
446.76	5836.14
446.97	5871.85
447.18	5837.12
447.39	5903.23
447.61	5902.90
447.82	5921.50
448.03	5883.81
448.25	5925.92
448.46	5969.42
448.67	6012.26
448.88	5913.80
449.10	6024.71
449.31	6037.66
449.52	6013.98
449.73	6043.47
449.95	6110.40
450.16	6038.07
450.37	6151.77
450.58	6255.89
450.79	6088.20
451.01	6185.11
451.22	6157.50
451.43	6188.06
451.64	6269.65
451.86	6254.09
452.07	6295.05
452.28	6318.80
452.49	6427.35
452.71	6378.60
452.92	6380.57
453.13	6457.08
453.34	6498.29
453.55	6565.79
453.77	6608.80
453.98	6636.24
454.19	6580.12
454.40	6678.43
454.62	6738.47
454.83	6677.03
455.04	6837.10
455.25	6750.92
455.46	7006.67
455.68	6895.18
455.89	6919.43
456.10	7004.79
456.31	7040.59
456.52	7097.03
456.74	7135.94
456.95	7279.96
457.16	7255.79
457.37	7365.64
457.58	7389.40
457.80	7406.68
458.01	7419.30
458.22	7742.22
458.43	7594.69
458.64	7680.37
458.86	7619.84
459.07	7744.27
459.28	7761.47
459.49	7929.16
459.70	8124.62
459.91	8097.34
460.13	8118.64
460.34	8194.25
460.55	8180.16
460.76	8380.86
460.97	8408.71
461.19	8410.60
461.40	8686.09
461.61	8619.82
461.82	8691.74
462.03	8776.77
462.24	8811.18
462.46	8856.40
462.67	8901.37
462.88	9067.50
463.09	9100.60
463.30	9279.18
463.51	9208.32
463.72	9436.06
463.94	9473.58
464.15	9560.90
464.36	9439.25
464.57	9806.82
464.78	9800.68
464.99	9828.61
465.20	9860.97
465.42	10067.73
465.63	10039.63
465.84	10032.02
466.05	10230.18
466.26	10311.03
466.47	10413.35
466.68	10400.16
466.90	10585.21
467.11	10533.60
467.32	10671.97
467.53	10842.68
467.74	10675.08
467.95	10799.84
468.16	10979.32
468.37	11098.60
468.59	11035.52
468.80	11261.86
469.01	11117.77
469.22	11343.78
469.43	11522.94
469.64	11403.34
469.85	11546.04
470.06	11564.14
470.28	11695.54
470.49	11487.14
470.70	11668.10
470.91	11942.03
471.12	11801.79
471.33	12001.51
471.54	11900.75
471.75	11945.88
471.96	12197.70
472.17	12142.08
472.39	12398.16
472.60	12115.37
472.81	12383.17
473.02	12283.88
473.23	12484.66
473.44	12494.49
473.65	12409.54
473.86	12493.67
474.07	12526.61
474.28	12582.56
474.49	12811.19
474.71	12705.84
474.92	12851.17
475.13	12709.78
475.34	12781.21
475.55	12774.16
475.76	12835.93
475.97	13140.75
476.18	13011.16
476.39	13116.91
476.60	13216.69
476.81	13193.18
477.02	13311.39
477.23	13283.70
477.44	13238.81
477.65	13404.77
477.87	13512.17
478.08	13474.73
478.29	13495.62
478.50	13734.17
478.71	13599.66
478.92	13702.39
479.13	13688.30
479.34	13682.56
479.55	13846.15
479.76	13775.95
479.97	13755.96
480.18	14138.03
480.39	13870.65
480.60	14165.96
480.81	14137.46
481.02	14186.85
481.23	14159.90
481.44	14328.41
481.65	14422.78
481.86	14584.65
482.07	14264.27
482.28	14816.97
482.49	14595.38
482.71	14625.12
482.92	14727.27
483.13	14891.85
483.34	14786.25
483.55	14895.78
483.76	14936.08
483.97	15094.51
484.18	15090.99
484.39	15207.23
484.60	15151.04
484.81	15401.30
485.02	15309.63
485.23	15510.09
485.44	15614.29
485.65	15760.84
485.86	15656.15
486.07	15934.10
486.28	15897.48
486.49	16047.80
486.70	16149.22
486.91	16336.24
487.12	16224.75
487.33	16244.08
487.54	16543.25
487.75	16583.55
487.96	16642.37
488.17	16629.75
488.38	16872.80
488.59	16933.02
488.80	17024.11
489.01	17039.10
489.22	17335.15
489.43	17329.26
489.64	17331.71
489.85	17703.38
490.06	17472.29
490.26	17779.32
490.47	17785.46
490.68	18046.54
490.89	18269.19
491.10	18123.79
491.31	18408.29
491.52	18625.54
491.73	18583.43
491.94	18709.59
492.15	18921.18
492.36	19080.52
492.57	19129.34
492.78	19187.34
492.99	19303.74
493.20	19585.79
493.41	19683.11
493.62	19843.67
493.83	19909.61
494.04	20089.18
494.25	20332.89
494.46	20475.51
494.67	20457.24
494.88	20723.64
495.08	20829.15
495.29	21056.07
495.50	21329.18
495.71	21318.54
495.92	21631.96
496.13	21735.01
496.34	21700.03
496.55	21973.72
496.76	22373.57
496.97	22154.60
497.18	22590.41
497.39	22544.61
497.60	23090.52
497.81	22946.59
498.02	23213.64
498.22	23152.12
498.43	23660.67
498.64	23816.65
498.85	23930.92
499.06	24129.33
499.27	24591.76
499.48	24158.17
499.69	24663.36
499.90	24840.06
500.11	25205.09
500.32	25547.35
500.52	25443.31
500.73	26024.28
500.94	26066.30
501.15	26296.57
501.36	26464.92
501.57	26447.55
501.78	26722.22
501.99	27170.32
502.20	27245.60
502.41	27442.78
502.61	27500.70
502.82	27963.62
503.03	27830.99
503.24	28371.66
503.45	28232.23
503.66	28781.74
503.87	28776.25
504.08	29176.02
504.28	29134.81
504.49	29439.22
504.70	29595.11
504.91	29909.76
505.12	29820.06
505.33	30416.10
505.54	30447.15
505.75	30642.53
505.95	30939.65
506.16	30993.96
506.37	30980.36
506.58	31548.96
506.79	31240.37
507.00	31767.60
507.21	31603.84
507.41	31787.18
507.62	32071.93
507.83	32554.84
508.04	32161.06
508.25	32839.42
508.46	32441.22
508.67	33149.98
508.87	32877.11
509.08	33337.08
509.29	33286.05
509.50	33571.45
509.71	33696.87
509.92	33953.36
510.12	33774.12
510.33	34004.80
510.54	33967.20
510.75	34180.52
510.96	34437.66
511.17	34670.96
511.37	34567.91
511.58	34830.38
511.79	34554.48
512.00	34615.83
512.21	35165.02
512.42	35129.46
512.62	35170.67
512.83	35337.21
513.04	35223.18
513.25	35624.50
513.46	34818.91
513.66	35801.61
513.87	35350.64
514.08	35646.78
514.29	35412.82
514.50	35336.96
514.71	35655.96
514.91	35406.18
515.12	35430.76
515.33	35682.25
515.54	35480.49
515.75	35819.55
515.95	35474.51
516.16	35459.02
516.37	35874.19
516.58	35833.96
516.78	35501.87
516.99	35730.09
517.20	35662.75
517.41	35618.27
517.62	35672.99
517.82	35454.44
518.03	35961.76
518.24	36229.30
518.45	35487.45
518.66	35824.22
518.86	35478.36
519.07	35811.68
519.28	35134.30
519.49	35653.25
519.69	35581.49
519.90	35499.24
520.11	35467.79
520.32	35240.79
520.52	35587.80
520.73	35219.00
520.94	35577.72
521.15	35446.73
521.36	34926.47
521.56	35556.26
521.77	34843.65
521.98	35269.05
522.19	34826.86
522.39	35062.78
522.60	34820.63
522.81	34867.32
523.02	34626.48
523.22	34828.17
523.43	34831.61
523.64	34690.13
523.84	34669.82
524.05	34899.76
524.26	34801.05
524.47	34513.11
524.67	34583.15
524.88	34605.67
525.09	34792.78
525.30	34438.72
525.50	34305.85
525.71	34329.04
525.92	34281.77
526.13	34480.75
526.33	34258.59
526.54	34045.10
526.75	34241.22
526.95	34507.54
527.16	33910.10
527.37	34323.79
527.58	34354.59
527.78	34193.54
527.99	34293.65
528.20	34394.82
528.40	34100.56
528.61	33994.15
528.82	34336.24
529.03	34151.84
529.23	34024.05
529.44	34198.54
529.65	34188.79
529.85	34182.81
530.06	33987.93
530.27	34071.56
530.47	33691.38
530.68	34326.82
530.89	33734.63
531.09	34205.09
531.30	34164.05
531.51	33846.78
531.72	34165.20
531.92	34121.13
532.13	34294.55
532.34	34122.27
532.54	34069.52
532.75	34206.40
532.96	34122.03
533.16	34320.68
533.37	34437.41
533.58	34244.82
533.78	34490.33
533.99	34585.03
534.20	34142.01
534.40	34406.86
534.61	34611.74
534.82	34624.68
535.02	34661.22
535.23	34650.89
535.44	34886.16
535.64	34741.17
535.85	34889.44
536.06	34858.48
536.26	34903.86
536.47	35039.11
536.68	35484.25
536.88	34992.90
537.09	35479.99
537.29	35066.96
537.50	35780.23
537.71	35374.81
537.91	35720.34
538.12	35781.54
538.33	35553.97
538.53	35727.06
538.74	35924.24
538.95	36015.50
539.15	35908.92
539.36	36284.27
539.56	36591.55
539.77	36219.39
539.98	36365.86
540.18	36593.11
540.39	36484.81
540.60	36887.85
540.80	37050.54
541.01	37106.33
541.21	37092.24
541.42	37344.38
541.63	37309.40
541.83	37607.92
542.04	37677.96
542.25	37767.33
542.45	37970.00
542.66	38033.24
542.86	38359.52
543.07	37589.24
543.28	38529.01
543.48	38457.74
543.69	38777.55
543.89	38744.37
544.10	39204.51
544.31	39098.02
544.51	39079.18
544.72	39382.36
544.92	39355.90
545.13	39899.67
545.33	39977.82
545.54	39842.41
545.75	40275.27
545.95	40223.99
546.16	40355.72
546.36	40882.29
546.57	40311.56
546.78	39858.88
546.98	40504.56
547.19	39959.72
547.39	41046.78
547.60	41433.36
547.80	42116.40
548.01	42295.55
548.22	41994.66
548.42	42307.51
548.63	42719.32
548.83	42637.07
549.04	43070.99
549.24	43037.24
549.45	43440.20
549.65	43898.62
549.86	43345.42
550.07	43758.62
550.27	44177.55
550.48	44359.09
550.68	44341.80
550.89	44480.24
551.09	44890.25
551.30	44740.33
551.50	45236.60
551.71	45173.52
551.91	45409.61
552.12	45855.82
552.33	46306.95
552.53	45913.66
552.74	46678.12
552.94	46864.65
553.15	46788.47
553.35	47223.70
553.56	46958.29
553.76	47645.99
553.97	47353.95
554.17	47756.09
554.38	48518.51
554.58	48057.39
554.79	48746.98
554.99	48382.52
555.20	48711.92
555.40	49395.94
555.61	49081.78
555.81	49038.78
556.02	50116.17
556.22	49944.88
556.43	49844.77
556.63	50135.67
556.84	50118.55
557.04	50923.89
557.25	50332.19
557.45	51041.28
557.66	51130.98
557.86	51127.62
558.07	51855.47
558.27	51562.94
558.48	51865.38
558.68	52060.92
558.89	52375.65
559.09	52535.23
559.30	52340.67
559.50	52730.77
559.71	52476.66
559.91	53292.90
560.12	53006.67
560.32	53296.67
560.53	53598.95
560.73	53369.90
560.94	54013.21
561.14	53584.37
561.35	54292.31
561.55	54033.69
561.76	54388.40
561.96	53889.10
562.17	54497.60
562.37	54754.49
562.57	54531.59
562.78	54612.04
562.98	54982.72
563.19	55144.10
563.39	55385.84
563.60	55530.34
563.80	54988.21
564.01	55761.52
564.21	55512.49
564.42	55441.63
564.62	55649.86
564.82	55952.64
565.03	55576.30
565.23	55667.72
565.44	55932.24
565.64	55781.92
565.85	56237.71
566.05	55890.54
566.25	56308.41
566.46	55830.41
566.66	56100.17
566.87	56155.39
567.07	56135.23
567.28	56245.82
567.48	56616.01
567.68	55920.93
567.89	56899.78
568.09	56222.72
568.30	56256.96
568.50	56660.41
568.71	56534.59
568.91	56805.66
569.11	56276.46
569.32	56336.59
569.52	56492.64
569.73	55901.19
569.93	56487.16
570.13	56253.11
570.34	56040.62
570.54	56520.74
570.75	56162.43
570.95	56104.68
571.15	55896.03
571.36	56406.79
571.56	55757.59
571.77	55616.93
571.97	55129.76
572.17	55830.41
572.38	55669.93
572.58	55812.15
572.79	55486.35
572.99	55550.74
573.19	55410.42
573.40	55234.04
573.60	55281.31
573.81	55042.60
574.01	55193.66
574.21	55010.49
574.42	54944.22
574.62	54579.51
574.82	54948.31
575.03	54565.26
575.23	54978.70
575.43	54541.50
575.64	54304.43
575.84	54646.61
576.05	53997.65
576.25	54216.86
576.45	53879.35
576.66	54373.32
576.86	53829.22
577.06	54053.43
577.27	53761.96
577.47	53695.20
577.67	53454.93
577.88	52947.20
578.08	53506.95
578.28	53399.56
578.49	53111.45
578.69	53169.36
578.89	52721.19
579.10	52698.74
579.30	53221.71
579.50	52615.76
579.71	52029.14
579.91	52477.15
580.11	52147.35
580.32	51929.77
580.52	51806.48
580.72	52374.67
580.93	51617.17
581.13	51682.87
581.33	51870.95
581.54	51331.68
581.74	51211.42
581.94	51283.10
582.15	51421.71
582.35	51014.74
582.55	51012.77
582.76	50624.80
582.96	50944.04
583.16	50484.15
583.37	50638.81
583.57	50200.14
583.77	50626.03
583.97	49627.61
584.18	50632.50
584.38	50192.19
584.58	49871.32
584.79	50234.30
584.99	49918.75
585.19	49781.78
585.40	49556.26
585.60	49724.93
585.80	49137.41
586.00	49436.41
586.21	49318.94
586.41	49301.98
586.61	49320.90
586.82	49094.64
587.02	48929.58
587.22	49116.52
587.42	48451.25
587.63	49040.41
587.83	48314.61
588.03	48594.94
588.23	48154.79
588.44	48497.05
588.64	48009.47
588.84	48230.97
589.05	48480.09
589.25	48325.59
589.45	48219.51
589.65	47899.61
589.86	48096.05
590.06	48045.51
590.26	47711.61
590.46	47991.03
590.67	47281.86
590.87	47886.01
591.07	48046.33
591.27	47375.25
591.48	47726.03
591.68	47123.02
591.88	47940.00
592.08	47190.69
592.29	47480.35
592.49	47342.16
592.69	47421.37
592.89	47153.83
593.10	47242.46
593.30	46931.25
593.50	47473.96
593.70	46593.83
593.90	47262.53
594.11	47085.75
594.31	46996.13
594.51	47253.03
594.71	47218.54
594.92	47126.87
595.12	46968.12
595.32	46956.40
595.52	47122.53
595.72	46468.41
595.93	47127.94
596.13	46840.73
596.33	46540.34
596.53	47037.17
596.73	46793.79
596.94	46722.69
597.14	47059.21
597.34	46861.95
597.54	47085.34
597.74	46714.25
597.95	46889.47
598.15	46836.39
598.35	47086.57
598.55	47122.37
598.75	46803.54
598.96	47300.54
599.16	46895.29
599.36	46984.99
599.56	46945.51
599.76	46845.89
599.97	47281.62
600.17	47107.05
600.37	47321.35
600.57	46606.20
600.77	47490.92
600.97	47180.94
601.18	47726.11
601.38	47235.01
601.58	47511.65
601.78	47406.71
601.98	47141.05
602.18	47567.51
602.39	47923.12
602.59	47746.26
602.79	47667.29
602.99	47689.41
603.19	47721.85
603.39	47515.82
603.60	47579.88
603.80	47733.48
604.00	47793.86
604.20	47907.15
604.40	48106.70
604.60	47952.29
604.80	48013.23
605.01	48272.84
605.21	48209.51
605.41	48130.38
605.61	47906.66
605.81	48326.82
606.01	48657.03
606.21	48253.34
606.42	48548.90
606.62	48487.05
606.82	48882.56
607.02	48659.74
607.22	49021.16
607.42	49207.36
607.62	48761.32
607.82	49038.94
608.03	49156.25
608.23	49025.26
608.43	48977.91
608.63	49474.91
608.83	49449.43
609.03	49559.53
609.23	49646.94
609.43	49972.90
609.63	49704.53
609.84	49617.53
610.04	50283.86
610.24	50225.04
610.44	50475.47
610.64	50266.98
610.84	50686.33
611.04	51006.30
611.24	50749.08
611.44	50211.85
611.64	50850.24
611.85	50924.22
612.05	50955.92
612.25	51183.57
612.45	51065.20
612.65	51372.56
612.85	51557.61
613.05	51390.91
613.25	51931.08
613.45	51835.56
613.65	52042.00
613.85	51676.81
614.05	52293.82
614.25	52488.21
614.46	52399.82
614.66	52227.79
614.86	52192.48
615.06	52455.03
615.26	53006.59
615.46	52423.08
615.66	53144.22
615.86	53287.49
616.06	52915.66
616.26	53033.71
616.46	53700.44
616.66	53357.70
616.86	53901.64
617.06	53520.14
617.26	54249.71
617.46	54084.89
617.66	53955.95
617.86	53962.75
618.07	54338.67
618.27	54362.43
618.47	54520.86
618.67	54615.64
618.87	55010.08
619.07	54831.00
619.27	54831.82
619.47	55010.73
619.67	55569.83
619.87	55183.99
620.07	55753.49
620.27	55850.97
620.47	55578.51
620.67	55887.67
620.87	56043.81
621.07	56238.53
621.27	56193.89
621.47	55947.97
621.67	56399.34
621.87	56237.14
622.07	56905.68
622.27	56877.91
622.47	56630.76
622.67	56851.94
622.87	56482.90
623.07	57153.81
623.27	57645.24
623.47	56779.85
623.67	57568.16
623.87	58004.54
624.07	57948.91
624.27	57653.68
624.47	58057.21
624.67	57987.99
624.87	58238.17
625.07	58059.59
625.27	58724.11
625.47	58339.67
625.67	58317.47
625.87	58683.97
626.07	58675.86
626.27	58985.92
626.47	58910.31
626.67	58849.28
626.87	58555.93
627.07	59299.67
627.27	59208.58
627.47	59532.24
627.67	59385.36
627.87	59365.62
628.07	59837.39
628.27	59665.69
628.47	59562.71
628.67	60287.28
628.86	60296.54
629.06	59974.93
629.26	59932.82
629.46	60576.70
629.66	60506.66
629.86	59994.59
630.06	60666.73
630.26	60544.18
630.46	60918.39
630.66	60451.12
630.86	60757.09
631.06	60886.85
631.26	60532.96
631.46	61165.37
631.66	61074.36
631.86	60732.43
632.06	61330.11
632.26	60983.02
632.45	61166.19
632.65	61353.05
632.85	61415.47
633.05	61363.53
633.25	61505.01
633.45	61141.21
633.65	61392.94
633.85	62049.03
634.05	61046.10
634.25	61565.22
634.45	61550.39
634.65	61954.17
634.84	61426.37
635.04	61613.55
635.24	61247.13
635.44	61703.41
635.64	61296.11
635.84	61761.00
636.04	61590.37
636.24	61570.87
636.44	61774.36
636.64	61220.42
636.84	62201.64
637.03	61494.60
637.23	61803.85
637.43	61792.87
637.63	61564.32
637.83	61806.39
638.03	61812.20
638.23	61174.55
638.43	61737.66
638.62	62040.76
638.82	60911.59
639.02	61826.46
639.22	61380.49
639.42	61701.61
639.62	61290.87
639.82	61353.87
640.02	61516.97
640.21	61666.22
640.41	61016.03
640.61	61579.96
640.81	61394.91
641.01	61299.80
641.21	61131.54
641.41	61818.26
641.61	61076.16
641.80	61181.84
642.00	61403.59
642.20	61317.25
642.40	60581.37
642.60	61139.73
642.80	61174.87
642.99	60568.27
643.19	61014.40
643.39	60362.65
643.59	60749.47
643.79	60485.86
643.99	60641.83
644.19	60412.05
644.38	59983.04
644.58	60220.44
644.78	60050.87
644.98	60001.31
645.18	60080.52
645.38	60357.24
645.57	59786.11
645.77	59816.91
645.97	59616.70
646.17	59916.36
646.37	59786.27
646.56	59367.42
646.76	59321.30
646.96	59259.61
647.16	58901.22
647.36	59049.16
647.55	58766.22
647.75	58778.42
647.95	58321.07
648.15	58721.82
648.35	58581.74
648.55	58701.42
648.74	58376.61
648.94	58229.65
649.14	58400.29
649.34	57785.90
649.54	57724.21
649.73	57759.76
649.93	57321.58
650.13	57535.96
650.33	57182.24
650.52	57540.39
650.72	57626.24
650.92	57116.78
651.12	56763.30
651.32	56945.57
651.51	56994.40
651.71	56826.22
651.91	56492.56
652.11	56165.38
652.30	55848.76
652.50	56350.60
652.70	56205.19
652.90	55668.30
653.10	55944.28
653.29	55598.09
653.49	55915.94
653.69	55412.22
653.89	55545.50
654.08	55254.28
654.28	55512.08
654.48	55208.81
654.68	55304.33
654.87	54965.27
655.07	54601.80
655.27	55025.89
655.47	54447.95
655.66	54344.49
655.86	54041.80
656.06	54455.00
656.26	53507.53
656.45	53785.89
656.65	53671.20
656.85	53503.18
657.04	53019.78
657.24	53016.42
657.44	52821.21
657.64	53305.43
657.83	52296.85
658.03	52857.99
658.23	52663.43
658.43	52422.51
658.62	52394.99
658.82	52182.24
659.02	52044.70
659.21	52180.20
659.41	51876.36
659.61	52224.76
659.81	51710.31
660.00	51311.53
660.20	51422.94
660.40	50992.78
660.59	51176.36
660.79	50770.46
660.99	50991.47
661.19	50881.62
661.38	50788.48
661.58	50034.91
661.78	50385.19
661.97	50023.93
662.17	50621.20
662.37	49821.43
662.56	49807.01
662.76	49752.04
662.96	49715.67
663.15	49859.03
663.35	49607.37
663.55	49297.56
663.74	48957.27
663.94	49263.15
664.14	48675.30
664.33	49025.83
664.53	48699.71
664.73	49026.16
664.93	48285.53
665.12	48590.84
665.32	48226.71
665.52	48216.23
665.71	47940.82
665.91	48013.64
666.10	47771.41
666.30	48049.03
666.50	47524.75
666.69	47443.08
666.89	47632.97
667.09	47794.84
667.28	47367.47
667.48	47081.57
667.68	47092.96
667.87	47111.96
668.07	46698.60
668.27	47051.18
668.46	46929.94
668.66	46451.95
668.86	46819.68
669.05	46353.48
669.25	46575.64
669.44	46290.07
669.64	46122.96
669.84	46189.23
670.03	46428.52
670.23	46097.24
670.43	45960.35
670.62	45854.76
670.82	45703.62
671.01	45941.35
671.21	45395.68
671.41	45438.45
671.60	45749.08
671.80	45784.80
672.00	45483.26
672.19	45698.29
672.39	45563.45
672.58	45404.12
672.78	45176.06
672.98	45514.14
673.17	45141.00
673.37	44425.60
673.56	44729.93
673.76	44765.57
673.96	44999.28
674.15	44711.34
674.35	44726.16
674.54	44571.34
674.74	44527.59
674.94	44386.36
675.13	44529.97
675.33	43982.67
675.52	44462.88
675.72	44349.42
675.91	44180.83
676.11	44513.34
676.31	43910.66
676.50	44003.64
676.70	43864.71
676.89	43873.39
677.09	44006.67
677.28	43953.83
677.48	43303.89
677.68	43730.93
677.87	43423.90
678.07	43376.22
678.26	43463.39
678.46	43579.38
678.65	43390.15
678.85	43653.68
679.04	43097.86
679.24	43358.12
679.44	43179.13
679.63	43328.96
679.83	43133.50
680.02	43099.42
680.22	42833.59
680.41	43036.83
680.61	42781.25
680.80	42697.28
681.00	42827.61
681.19	42822.62
681.39	42631.25
681.59	42531.89
681.78	42478.15
681.98	42782.72
682.17	42182.83
682.37	42535.57
682.56	42306.94
682.76	42666.23
682.95	42431.13
683.15	42351.09
683.34	42287.11
683.54	42339.95
683.73	42397.62
683.93	42025.71
684.12	42311.20
684.32	42494.12
684.51	41935.27
684.71	42187.66
684.90	41978.77
685.10	41932.90
685.29	41830.01
685.49	42077.16
685.68	42031.86
685.88	41883.91
686.07	41751.12
686.27	42179.88
686.46	42069.46
686.66	41894.64
686.85	42058.40
687.05	41880.39
687.24	41778.32
687.44	41991.31
687.63	41877.52
687.83	41480.30
688.02	41893.90
688.22	42023.09
688.41	41766.52
688.61	41816.41
688.80	42018.75
689.00	41679.28
689.19	41632.34
689.39	42085.02
689.58	42014.00
689.77	41772.25
689.97	41950.59
690.16	41700.90
690.36	41240.36
690.55	41256.33
690.75	41874.49
690.94	41466.94
691.14	41661.99
691.33	41160.08
691.53	41621.93
691.72	41473.58
691.91	41627.59
692.11	41651.10
692.30	41764.23
692.50	41776.68
692.69	41465.31
692.89	41635.53
693.08	41439.66
693.28	41444.58
693.47	41667.56
693.66	41574.67
693.86	41540.18
694.05	41430.24
694.25	41450.64
694.44	41751.20
694.64	41641.68
694.83	41740.63
695.02	41733.26
695.22	41833.61
695.41	41524.45
695.61	41410.50
695.80	41437.13
695.99	41428.77
696.19	41500.12
696.38	41587.36
696.58	41316.21
696.77	41858.19
696.96	41829.35
697.16	41542.39
697.35	41652.41
697.55	41619.72
697.74	41473.74
697.93	42011.21
698.13	41529.28
698.32	41825.34
698.52	41577.21
698.71	41193.66
698.90	41926.26
699.10	41483.98
699.29	41573.68
699.49	42123.03
699.68	41857.94
699.87	41858.35
700.07	42192.25
700.26	42002.86
700.45	41908.81
700.65	41605.88
700.84	41972.22
701.04	41490.13
701.23	41902.92
701.42	41792.24
701.62	41808.87
701.81	41933.31
702.00	41863.43
702.20	41591.95
702.39	41850.32
702.58	42269.42
702.78	42020.55
702.97	42127.95
703.17	42232.23
703.36	42194.71
703.55	41995.40
703.75	41903.24
703.94	42139.25
704.13	41885.96
704.33	41890.22
704.52	42340.61
704.71	42229.93
704.91	42367.56
705.10	42188.65
705.29	42380.26
705.49	42475.04
705.68	42568.51
705.87	42581.28
706.07	42226.41
706.26	42531.97
706.45	42162.93
706.65	42025.22
706.84	42486.01
707.03	42743.57
707.23	42160.88
707.42	42105.09
707.61	42569.73
707.80	42351.83
708.00	42375.42
708.19	42332.42
708.38	42863.49
708.58	42171.36
708.77	42896.92
708.96	42397.79
709.16	42376.65
709.35	43197.15
709.54	42760.36
709.74	42635.92
709.93	42346.01
710.12	43170.03
710.31	43262.85
710.51	42825.98
710.70	42851.62
710.89	42989.49
711.09	42437.27
711.28	42632.32
711.47	42923.13
711.66	42857.60
711.86	42889.22
712.05	42872.10
712.24	43121.37
712.43	42652.55
712.63	42324.14
712.82	42951.23
713.01	42856.04
713.21	42556.22
713.40	42759.29
713.59	43230.90
713.78	42615.12
713.98	43213.04
714.17	42955.08
714.36	43086.07
714.55	42593.90
714.75	42751.35
714.94	42774.94
715.13	43182.08
715.32	42665.33
715.52	43001.69
715.71	42742.58
715.90	42796.40
716.09	42720.14
716.29	43102.45
716.48	43053.71
716.67	42671.89
716.86	43181.09
717.06	43052.81
717.25	43273.91
717.44	43278.90
717.63	43312.82
717.82	42865.95
718.02	43127.03
718.21	43284.97
718.40	43403.75
718.59	43194.04
718.79	42954.75
718.98	43025.78
719.17	43339.28
719.36	43361.23
719.55	43103.02
719.75	43228.20
719.94	43166.84
720.13	43462.16
720.32	43289.88
720.51	43026.27
720.71	43041.50
720.90	42736.11
721.09	43123.50
721.28	42782.80
721.47	43363.44
721.67	43225.74
721.86	43229.67
722.05	43314.87
722.24	42809.10
722.43	43458.88
722.63	43144.56
722.82	43098.11
723.01	43231.39
723.20	42841.38
723.39	42865.87
723.58	43184.45
723.78	42579.97
723.97	43244.42
724.16	42821.63
724.35	43000.79
724.54	42780.18
724.73	43053.05
724.93	42771.83
725.12	43200.34
725.31	42416.63
725.50	42922.15
725.69	43068.13
725.88	42755.69
726.08	42293.91
726.27	42785.43
726.46	42134.42
726.65	43052.24
726.84	42338.31
727.03	42637.89
727.23	42938.61
727.42	42559.82
727.61	42530.82
727.80	42329.96
727.99	42602.58
728.18	42574.40
728.37	42286.70
728.56	42102.71
728.76	41998.19
728.95	42207.73
729.14	41996.71
729.33	41988.19
729.52	42035.38
729.71	42123.85
729.90	42110.17
730.09	41757.84
730.29	42068.64
730.48	41591.71
730.67	42147.52
730.86	41678.54
731.05	42057.74
731.24	41775.61
731.43	41844.18
731.62	41635.53
731.81	41530.92
732.01	42174.07
732.20	41637.01
732.39	42042.34
732.58	41846.72
732.77	41129.93
732.96	41731.05
733.15	41751.04
733.34	41480.87
733.53	41449.09
733.72	41565.90
733.92	41475.95
734.11	41525.84
734.30	41413.86
734.49	41645.36
734.68	41367.74
734.87	41187.68
735.06	41177.93
735.25	41202.76
735.44	40868.94
735.63	40838.14
735.82	40921.36
736.01	40661.27
736.20	40698.79
736.40	40904.65
736.59	40661.60
736.78	40880.57
736.97	40518.49
737.16	40571.90
737.35	40630.39
737.54	40645.30
737.73	40377.92
737.92	40577.31
738.11	40618.27
738.30	40252.17
738.49	40148.71
738.68	40026.65
738.87	40200.81
739.06	39868.14
739.25	40129.05
739.44	40039.43
739.63	39893.69
739.82	39570.69
740.01	39907.13
740.20	39478.04
740.39	39451.66
740.59	39315.59
740.78	39378.51
740.97	39144.79
741.16	38932.71
741.35	39174.12
741.54	38951.87
741.73	39095.89
741.92	38853.24
742.11	38813.27
742.30	38964.98
742.49	38624.12
742.68	38876.02
742.87	38583.08
743.06	38315.78
743.25	38506.97
743.44	38209.36
743.63	38495.42
743.82	38126.46
744.01	38109.26
744.20	37760.69
744.39	38000.63
744.58	37770.85
744.77	37626.35
744.96	37274.75
745.15	37681.97
745.34	37359.05
745.53	37468.41
745.72	37154.82
745.91	37138.68
746.10	36925.12
746.29	37136.55
746.48	37075.28
746.67	36976.24
746.86	36860.16
747.04	36800.20
747.23	36550.84
747.42	36919.88
747.61	36500.05
747.80	36989.51
747.99	36297.30
748.18	36771.36
748.37	36482.27
748.56	35962.33
748.75	36170.81
748.94	36039.50
749.13	35925.71
749.32	35682.91
749.51	35805.46
749.70	35737.05
749.89	35477.95
750.08	35588.13
750.27	35084.65
750.46	35250.70
750.65	35606.15
750.84	35067.45
751.02	35274.05
751.21	35026.16
751.40	35069.50
751.59	35028.05
751.78	34820.22
751.97	34916.31
752.16	34522.36
752.35	34837.75
752.54	34355.25
752.73	34576.18
752.92	34217.87
753.11	34205.09
753.30	34247.20
753.49	34339.68
753.67	34198.54
753.86	33807.62
754.05	34035.27
754.24	33688.35
754.43	33630.10
754.62	33669.26
754.81	33266.39
755.00	33450.54
755.19	33365.10
755.38	32927.73
755.56	33169.64
755.75	33341.01
755.94	32809.77
756.13	32790.27
756.32	32936.99
756.51	32633.48
756.70	32789.04
756.89	32647.33
757.08	32545.75
757.26	32591.95
757.45	32413.28
757.64	32149.10
757.83	32388.87
758.02	32120.34
758.21	32057.10
758.40	32034.82
758.59	31994.43
758.77	31825.93
758.96	31786.20
759.15	31762.68
759.34	31396.92
759.53	31488.91
759.72	31367.43
759.91	31107.66
760.09	31233.98
760.28	31303.04
760.47	30882.06
760.66	31172.21
760.85	30637.04
761.04	30987.24
761.23	30859.86
761.41	30775.89
761.60	30890.33
761.79	30580.11
761.98	30340.00
762.17	30594.69
762.36	30167.15
762.54	30433.63
762.73	30287.57
762.92	30043.37
763.11	30332.47
763.30	30311.00
763.49	30147.33
763.67	29982.18
763.86	29980.38
764.05	30086.87
764.24	29818.75
764.43	30062.05
764.61	29555.79
764.80	29458.97
764.99	29699.97
765.18	29277.93
765.37	29353.70
765.55	29326.34
765.74	29062.56
765.93	28847.77
766.12	29071.41
766.31	28893.64
766.49	28840.89
766.68	28876.77
766.87	28684.26
767.06	28521.41
767.25	28557.29
767.43	28543.61
767.62	28344.30
767.81	28432.36
768.00	28190.86
768.19	28157.11
768.37	28193.73
768.56	28162.93
768.75	28167.02
768.94	28262.13
769.12	27836.97
769.31	27812.89
769.50	27793.80
769.69	27797.74
769.88	27455.15
770.06	27829.44
770.25	27452.45
770.44	27368.07
770.63	27509.95
770.81	27404.61
771.00	27273.05
771.19	27320.72
771.38	27155.57
771.56	27288.53
771.75	26744.34
771.94	27022.78
772.13	26925.87
772.31	26772.28
772.50	27017.70
772.69	26829.62
772.88	27015.08
773.06	26607.95
773.25	26683.97
773.44	26665.62
773.62	26544.71
773.81	26621.87
774.00	26455.09
774.19	26482.61
774.37	26418.88
774.56	26617.61
774.75	26200.89
774.94	26514.64
775.12	26163.21
775.31	26256.11
775.50	26127.17
775.68	25986.02
775.87	25885.67
776.06	25752.39
776.25	25886.90
776.43	25668.18
776.62	25900.25
776.81	25551.52
776.99	25680.22
777.18	25537.19
777.37	25315.02
777.55	25400.55
777.74	25380.72
777.93	25365.49
778.12	25275.05
778.30	25155.77
778.49	25178.71
778.68	25170.68
778.86	25097.86
779.05	25270.54
779.24	25176.34
779.42	24933.45
779.61	24911.66
779.80	24963.84
779.98	25036.99
780.17	25116.21
780.36	24758.96
780.54	24997.75
780.73	24513.61
780.92	24838.09
781.10	24617.65
781.29	24551.87
781.48	24362.39
781.66	24432.27
781.85	24486.99
782.04	24323.32
782.22	24450.29
782.41	24222.39
782.60	24357.72
782.78	24295.79
782.97	24357.31
783.16	24007.35
783.34	24016.69
783.53	24054.54
783.71	23882.18
783.90	23903.56
784.09	23850.48
784.27	23704.58
784.46	23779.46
784.65	23806.16
784.83	23608.66
785.02	23669.93
785.20	23833.44
785.39	23400.34
785.58	23790.27
785.76	23595.47
785.95	23563.93
786.14	23606.61
786.32	23663.54
786.51	23510.35
786.69	23678.45
786.88	23556.23
787.07	23560.08
787.25	23594.48
787.44	23592.52
787.62	23507.24
787.81	23582.93
788.00	23522.07
788.18	23295.81
788.37	23318.34
788.55	23604.15
788.74	23345.94
788.93	23457.35
789.11	23498.48
789.30	23405.91
789.48	23240.60
789.67	23427.37
789.86	23338.24
790.04	23371.83
790.23	23306.54
790.41	23191.28
790.60	23350.61
790.78	23326.45
790.97	23153.52
791.16	23258.62
791.34	23469.64
791.53	23063.16
791.71	23412.46
791.90	23165.56
792.08	23152.86
792.27	23214.87
792.46	23125.83
792.64	23176.29
792.83	23034.41
793.01	23103.14
793.20	23078.31
793.38	23106.49
793.57	23095.52
793.75	23091.58
793.94	23187.10
794.12	23325.38
794.31	23116.08
794.50	23216.59
794.68	23290.40
794.87	23127.38
795.05	23313.50
795.24	23170.80
795.42	23091.75
795.61	23418.19
795.79	23409.59
795.98	23152.20
796.16	23345.78
796.35	23351.92
796.53	23147.54
796.72	23271.15
796.90	23297.94
797.09	23204.71
797.27	23206.44
797.46	23187.92
797.64	23273.03
797.83	23248.05
798.01	23299.82
798.20	23390.75
798.38	23195.54
798.57	23452.36
798.75	23336.93
798.94	22988.37
799.12	23609.39
799.31	23287.21
799.49	23296.46
799.68	23160.07
799.86	23241.74
800.05	23212.33
800.23	23201.52
800.42	23055.21
800.60	23286.63
800.79	22966.17
800.97	23129.84
801.16	23265.74
801.34	23012.62
801.53	23008.93
801.71	23185.46
801.90	22955.93
802.08	23254.11
802.27	23107.07
802.45	22987.47
802.64	23093.39
802.82	23192.26
803.00	22994.51
803.19	23097.73
803.37	23273.53
803.56	23064.80
803.74	23093.96
803.93	23152.29
804.11	23055.29
804.30	22957.24
804.48	23037.44
804.67	23080.36
804.85	22944.21
805.03	23116.73
805.22	22900.63
805.40	22825.92
805.59	22988.20
805.77	23042.76
805.96	22865.49
806.14	22862.46
806.32	22986.65
806.51	23171.78
806.69	22912.84
806.88	22945.28
807.06	22870.24
807.25	22947.33
807.43	22911.86
807.61	22957.07
807.80	22759.81
807.98	22878.92
808.17	22758.01
808.35	22687.81
808.53	22971.49
808.72	22831.57
808.90	22871.63
809.09	22897.77
809.27	22922.18
809.45	22684.45
809.64	22862.62
809.82	22700.10
810.01	22719.43
810.19	22784.47
810.37	22655.86
810.56	22580.66
810.74	22736.63
810.93	22489.89
811.11	22627.52
811.29	22502.67
811.48	22585.00
811.66	22532.74
811.84	22498.90
812.03	22474.74
812.21	22529.95
812.40	22605.72
812.58	22668.88
812.76	22507.01
812.95	22681.34
813.13	22393.80
813.31	22480.80
813.50	22531.67
813.68	22474.65
813.86	22554.77
814.05	22714.02
814.23	22400.19
814.42	22654.30
814.60	22483.58
814.78	22560.59
814.97	22543.88
815.15	22511.76
815.33	22613.51
815.52	22390.28
815.70	22475.97
815.88	22514.22
816.07	22332.36
816.25	22371.19
816.43	22398.55
816.62	22205.06
816.80	22339.08
816.98	22304.59
817.17	22280.10
817.35	22331.38
817.53	22300.82
817.72	22434.51
817.90	22148.29
818.08	22256.01
818.26	22373.24
818.45	22203.18
818.63	22288.54
818.81	22236.84
819.00	22047.45
819.18	22310.57
819.36	22247.49
819.55	22260.85
819.73	22180.40
819.91	22399.04
820.09	22279.36
820.28	22431.40
820.46	22194.90
820.64	22514.71
820.83	22160.99
821.01	22224.64
821.19	22159.02
821.38	22222.59
821.56	22163.61
821.74	22233.16
821.92	22043.60
822.11	22313.11
822.29	22041.06
822.47	22107.58
822.65	22224.15
822.84	22266.09
823.02	22047.20
823.20	22324.09
823.39	22069.57
823.57	22158.28
823.75	22213.01
823.93	22004.52
824.12	22156.40
824.30	22048.27
824.48	22116.59
824.66	22272.97
824.85	21872.55
825.03	22129.12
825.21	22142.64
825.39	22067.60
825.58	22168.11
825.76	22048.68
825.94	22082.43
826.12	21966.27
826.31	21920.72
826.49	22028.36
826.67	22004.85
826.85	21915.97
827.03	22015.42
827.22	22169.34
827.40	21973.64
827.58	21993.22
827.76	22117.41
827.95	22010.42
828.13	21992.15
828.31	22037.86
828.49	22031.56
828.67	21966.59
828.86	21864.36
829.04	21969.71
829.22	21936.12
829.40	21822.09
829.58	21780.72
829.77	21885.99
829.95	21892.54
830.13	21860.67
830.31	21799.23
830.49	21877.39
830.68	21985.76
830.86	21880.50
831.04	21853.96
831.22	21867.06
831.40	21882.79
831.59	22009.03
831.77	21753.52
831.95	21931.37
832.13	21654.16
832.31	21866.65
832.50	21779.90
832.68	21589.52
832.86	21679.63
833.04	21863.70
833.22	21533.82
833.40	21932.60
833.59	21674.47
833.77	21957.99
833.95	21411.10
834.13	21924.90
834.31	21682.99
834.49	21700.19
834.67	21713.63
834.86	21748.61
835.04	21668.16
835.22	21780.64
835.40	21710.60
835.58	21737.88
835.76	21685.86
835.95	21750.66
836.13	21691.76
836.31	21580.76
836.49	21760.00
836.67	21773.27
836.85	21670.87
837.03	21676.60
837.21	21707.81
837.40	21545.45
837.58	21412.25
837.76	21521.37
837.94	21549.71
838.12	21659.89
838.30	21531.44
838.48	21551.92
838.66	21554.22
838.85	21595.01
839.03	21624.50
839.21	21549.87
839.39	21569.04
839.57	21673.00
839.75	21483.77
839.93	21510.63
840.11	21577.15
840.29	21485.73
840.47	21500.56
840.66	21499.33
840.84	21531.03
841.02	21347.70
841.20	21491.96
841.38	21456.90
841.56	21362.36
841.74	21660.30
841.92	21457.14
842.10	21420.85
842.28	21529.80
842.46	21348.76
842.65	21380.96
842.83	21579.53
843.01	21649.81
843.19	21425.60
843.37	21641.54
843.55	21395.70
843.73	21557.66
843.91	21557.82
844.09	21443.22
844.27	21582.81
844.45	21346.14
844.63	21353.11
844.81	21350.40
844.99	21391.12
845.17	21269.88
845.35	21525.54
845.54	21367.60
845.72	21365.80
845.90	21289.95
846.08	21268.89
846.26	21112.35
846.44	21377.44
846.62	21087.44
846.80	21132.33
846.98	21123.16
847.16	21151.01
847.34	21168.71
847.52	21170.92
847.70	21113.57
847.88	21330.17
848.06	21163.22
848.24	21238.50
848.42	21277.08
848.60	21109.64
848.78	21282.57
848.96	21136.76
849.14	21149.62
849.32	21274.63
849.50	21034.69
849.68	21162.32
849.86	21110.13
850.04	20965.38
850.22	20995.61
850.40	20894.03
850.58	21078.76
850.76	21376.37
850.94	20784.59
851.12	21049.84
851.30	20939.74
851.48	21101.21
851.66	20888.87
851.84	20811.38
852.02	20839.15
852.20	20996.35
852.38	20796.55
852.56	20841.77
852.74	20839.97
852.92	20699.31
853.10	20692.68
853.28	20832.35
853.46	20402.52
853.64	20709.47
853.82	20587.49
854.00	20645.16
854.18	20513.68
854.36	20482.15
854.54	20579.46
854.72	20437.58
854.90	20472.31
855.07	20573.98
855.25	20548.66
855.43	20608.38
855.61	20567.09
855.79	20477.15
855.97	20567.09
856.15	20587.00
856.33	20489.27
856.51	20642.21
856.69	20414.56
856.87	20672.44
857.05	20514.75
857.23	20557.26
857.41	20402.93
857.59	20475.35
857.77	20466.66
857.94	20455.77
858.12	20591.59
858.30	20389.25
858.48	20401.70
858.66	20294.63
858.84	20475.59
859.02	20220.41
859.20	20191.83
859.38	20439.79
859.56	20326.01
859.74	20222.54
859.92	20298.81
860.09	20102.45
860.27	20265.72
860.45	19994.32
860.63	20050.35
860.81	20160.86
860.99	19993.25
861.17	19820.73
861.35	19528.28
861.53	19467.58
861.70	19383.45
861.88	19789.69
862.06	19730.54
862.24	19470.53
862.42	19478.15
862.60	19717.60
862.78	19743.07
862.96	19839.98
863.14	19692.37
863.31	19728.41
863.49	19677.29
863.67	19651.57
863.85	19564.41
864.03	19793.78
864.21	19705.15
864.39	19700.23
864.56	19581.86
864.74	19629.70
864.92	19559.00
865.10	19509.03
865.28	19505.67
865.46	19713.17
865.64	19298.09
865.81	19527.87
865.99	19288.92
866.17	19532.62
866.35	19400.90
866.53	19384.76
866.71	19440.55
866.88	19374.85
867.06	19225.02
867.24	19304.07
867.42	19145.07
867.60	19212.24
867.78	19088.71
867.95	19226.17
868.13	19020.55
868.31	19158.50
868.49	19072.90
868.67	18975.25
868.84	18926.02
869.02	19035.05
869.20	18720.89
869.38	18947.64
869.56	18796.83
869.73	18727.20
869.91	18781.43
870.09	18765.70
870.27	18645.69
870.45	18722.69
870.62	18592.61
870.80	18749.24
870.98	18672.40
871.16	18649.29
871.34	18654.46
871.51	18686.16
871.69	18466.53
871.87	18485.29
872.05	18435.98
872.23	18462.03
872.40	18300.08
872.58	18375.93
872.76	18240.52
872.94	18162.37
873.11	18218.16
873.29	18070.13
873.47	18172.36
873.65	18080.37
873.83	18093.31
874.00	18094.71
874.18	18175.23
874.36	18125.10
874.54	18116.90
874.71	18026.88
874.89	17839.94
875.07	17942.66
875.25	17877.54
875.42	17946.10
875.60	17824.13
875.78	17971.42
875.96	17778.01
876.13	17895.89
876.31	17701.74
876.49	17718.45
876.66	17606.63
876.84	17864.92
877.02	17678.56
877.20	17702.64
877.37	17675.61
877.55	17682.00
877.73	17581.98
877.91	17517.67
878.08	17676.59
878.26	17620.07
878.44	17611.30
878.61	17567.72
878.79	17430.43
878.97	17457.30
879.15	17574.28
879.32	17496.37
879.50	17483.35
879.68	17556.33
879.85	17344.49
880.03	17544.05
880.21	17350.56
880.38	17477.94
880.56	17294.77
880.74	17509.97
880.92	17228.74
881.09	17378.41
881.27	17344.41
881.45	17349.57
881.62	17272.16
881.80	17162.47
881.98	17094.48
882.15	17249.22
882.33	17068.84
882.51	17070.64
882.68	16983.31
882.86	17191.14
883.04	16986.18
883.21	17044.75
883.39	17173.12
883.57	17021.98
883.74	17086.45
883.92	17051.47
884.10	17074.33
884.27	17008.05
884.45	16924.00
884.63	17090.71
884.80	17032.87
884.98	17023.78
885.16	17011.66
885.33	17027.55
885.51	17004.94
885.69	16935.96
885.86	16911.63
886.04	16931.29
886.21	16712.49
886.39	16848.64
886.57	16613.45
886.74	16855.52
886.92	16756.56
887.10	16739.28
887.27	16737.64
887.45	16705.94
887.62	16691.35
887.80	16683.33
887.98	16837.50
888.15	16778.19
888.33	16707.33
888.51	16857.90
888.68	16780.81
888.86	16791.38
889.03	16684.97
889.21	16744.60
889.39	16788.59
889.56	16777.29
889.74	16752.63
889.91	16798.34
890.09	16744.68
890.27	16747.55
890.44	16721.42
890.62	16825.95
890.79	16759.76
890.97	16796.29
891.14	16709.38
891.32	16686.52
891.50	16633.03
891.67	16666.12
891.85	16593.13
892.02	16560.86
892.20	16624.35
892.38	16479.68
892.55	16396.53
892.73	16556.43
892.90	16452.48
893.08	16458.62
893.25	16454.36
893.43	16535.38
893.60	16349.84
893.78	16500.81
893.96	16381.13
894.13	16420.45
894.31	16547.67
894.48	16433.39
894.66	16489.51
894.83	16503.68
895.01	16452.64
895.18	16477.30
895.36	16404.15
895.53	16479.10
895.71	16335.09
895.89	16441.01
896.06	16243.34
896.24	16313.55
896.41	16204.02
896.59	16291.76
896.76	16044.11
896.94	16170.27
897.11	16141.60
897.29	16205.66
897.46	16056.73
897.64	16114.32
897.81	16092.69
897.99	15902.56
898.16	16154.71
898.34	16070.17
898.51	16068.61
898.69	15929.84
898.86	16044.85
899.04	16039.61
899.21	15909.69
899.39	15978.33
899.56	15838.50
899.74	15998.40
899.91	15815.89
900.09	15763.87
900.26	15803.85
900.44	15654.92
900.61	15673.60
900.79	15831.95
900.96	15699.97
901.14	15673.19
901.31	15546.70
901.49	15515.00
901.66	15522.05
901.84	15518.20
902.01	15474.04
902.19	15455.86
902.36	15301.69
902.54	15337.24
902.71	15327.57
902.88	15399.25
903.06	15146.61
903.23	15410.39
903.41	15161.28
903.58	15208.63
903.76	15035.78
903.93	15152.43
904.11	15205.35
904.28	15144.24
904.45	15133.18
904.63	15083.29
904.80	14887.75
904.98	14999.41
905.15	14807.47
905.33	14950.50
905.50	14853.43
905.68	14856.13
905.85	14723.91
906.02	14727.52
906.20	14787.89
906.37	14613.98
906.55	14540.58
906.72	14712.36
906.90	14453.50
907.07	14335.04
907.24	14414.51
907.42	14309.98
907.59	14244.93
907.77	14250.59
907.94	14247.80
908.11	14213.89
908.29	14155.81
908.46	14103.79
908.64	14032.76
908.81	14053.08
908.98	13925.78
909.16	13947.16
909.33	13816.74
909.51	13835.59
909.68	13771.20
909.85	13763.91
910.03	13700.17
910.20	13699.44
910.37	13630.62
910.55	13562.63
910.72	13572.87
910.90	13435.08
911.07	13422.88
911.24	13352.43
911.42	13451.71
911.59	13270.10
911.76	13298.12
911.94	13170.98
912.11	13157.87
912.29	13144.52
912.46	13043.84
912.63	13102.74
912.81	12941.61
912.98	13050.07
913.15	12898.35
913.33	12973.88
913.50	12946.28
913.67	12874.60
913.85	12829.87
914.02	12860.75
914.19	12804.97
914.37	12739.59
914.54	12808.08
914.71	12701.26
914.89	12679.22
915.06	12653.91
915.23	12556.26
915.41	12517.76
915.58	12439.44
915.75	12392.26
915.93	12364.98
916.10	12316.73
916.27	12246.36
916.45	12226.29
916.62	12166.33
916.79	12219.66
916.97	12177.14
917.14	12117.75
917.31	12064.09
917.49	12094.65
917.66	12045.66
917.83	11973.24
918.00	11919.51
918.18	11890.67
918.35	11807.52
918.52	11867.90
918.70	11693.16
918.87	11700.95
919.04	11719.46
919.21	11627.30
919.39	11555.62
919.56	11603.14
919.73	11478.86
919.91	11544.32
920.08	11478.70
920.25	11372.04
920.42	11462.56
920.60	11341.65
920.77	11237.29
920.94	11282.26
921.11	11160.86
921.29	11236.88
921.46	11066.90
921.63	11172.82
921.81	11067.06
921.98	11074.76
922.15	11029.79
922.32	11077.54
922.50	10996.53
922.67	10954.91
922.84	10909.61
923.01	10844.90
923.19	10813.28
923.36	10831.95
923.53	10680.40
923.70	10686.14
923.87	10666.23
924.05	10673.36
924.22	10556.71
924.39	10608.89
924.56	10496.00
924.74	10530.08
924.91	10481.59
925.08	10455.37
925.25	10407.53
925.43	10416.13
925.60	10314.14
925.77	10376.65
925.94	10307.51
926.11	10246.40
926.29	10261.39
926.46	10267.20
926.63	10199.38
926.80	10180.62
926.97	10068.55
927.15	10127.12
927.32	9994.25
927.49	9979.01
927.66	9981.23
927.83	9950.18
928.01	9894.47
928.18	9871.70
928.35	9780.03
928.52	9856.22
928.69	9705.73
928.87	9725.56
929.04	9704.59
929.21	9688.45
929.38	9626.44
929.55	9686.15
929.72	9604.15
929.90	9572.45
930.07	9566.88
930.24	9475.71
930.41	9446.71
930.58	9468.01
930.75	9440.89
930.93	9373.14
931.10	9365.85
931.27	9229.21
931.44	9261.49
931.61	9224.22
931.78	9243.22
931.95	9236.58
932.13	9161.71
932.30	9224.46
932.47	9082.17
932.64	9125.50
932.81	9098.14
932.98	9071.44
933.15	9035.15
933.33	8995.74
933.50	9017.86
933.67	8964.12
933.84	8959.13
934.01	8957.00
934.18	8958.55
934.35	8921.03
934.52	8881.55
934.70	8894.25
934.87	8846.49
935.04	8827.40
935.21	8760.64
935.38	8732.29
935.55	8694.45
935.72	8765.31
935.89	8647.75
936.06	8669.71
936.24	8586.31
936.41	8660.29
936.58	8576.57
936.75	8573.53
936.92	8593.19
937.09	8553.14
937.26	8501.36
937.43	8521.93
937.60	8513.73
937.77	8451.97
937.94	8429.44
938.12	8395.93
938.29	8377.91
938.46	8393.48
938.63	8289.69
938.80	8363.49
938.97	8263.72
939.14	8259.87
939.31	8248.32
939.48	8237.01
939.65	8160.91
939.82	8147.64
939.99	8149.20
940.16	8129.37
940.33	8105.94
940.50	8085.54
940.67	8051.06
940.85	8037.87
941.02	8049.42
941.19	8044.09
941.36	7973.73
941.53	7975.69
941.70	7959.64
941.87	7900.24
942.04	7927.44
942.21	7927.20
942.38	7916.55
942.55	7849.78
942.72	7822.42
942.89	7804.56
943.06	7766.39
943.23	7734.44
943.40	7737.06
943.57	7721.25
943.74	7708.55
943.91	7709.62
944.08	7662.60
944.25	7710.44
944.42	7592.07
944.59	7603.94
944.76	7577.40
944.93	7593.29
945.10	7583.63
945.27	7554.71
945.44	7469.43
945.61	7485.82
945.78	7476.64
945.95	7455.10
946.12	7383.58
946.29	7433.47
946.46	7368.51
946.63	7340.66
946.80	7343.85
946.97	7317.47
947.14	7273.73
947.31	7338.53
947.48	7292.41
947.65	7267.09
947.82	7273.73
947.99	7302.65
948.16	7237.60
948.33	7257.18
948.50	7155.60
948.67	7158.14
948.84	7141.02
949.01	7138.65
949.18	7112.35
949.35	7125.78
949.52	7076.88
949.68	7110.79
949.85	7058.61
950.02	7038.38
950.19	7021.17
950.36	7038.13
950.53	6989.47
950.70	6985.79
950.87	6956.62
951.04	7019.70
951.21	6920.99
951.38	6926.15
951.55	6934.83
951.72	6897.15
951.89	6875.28
952.06	6890.51
952.23	6877.82
952.39	6834.81
952.56	6793.52
952.73	6842.92
952.90	6770.34
953.07	6799.09
953.24	6705.87
953.41	6778.20
953.58	6689.65
953.75	6727.33
953.92	6667.20
954.09	6641.81
954.25	6606.67
954.42	6639.68
954.59	6587.50
954.76	6571.44
954.93	6532.45
955.10	6554.32
955.27	6507.63
955.44	6549.32
955.61	6512.29
955.77	6559.15
955.94	6500.25
956.11	6528.11
956.28	6501.40
956.45	6519.91
956.62	6501.32
956.79	6497.96
956.96	6498.86
957.12	6486.49
957.29	6442.25
957.46	6417.84
957.63	6398.59
957.80	6400.64
957.97	6344.20
958.14	6422.27
958.30	6323.55
958.47	6318.56
958.64	6299.63
958.81	6308.81
958.98	6244.42
959.15	6268.42
959.32	6279.32
959.48	6273.26
959.65	6206.08
959.82	6205.92
959.99	6146.12
960.16	6206.33
960.33	6180.36
960.49	6186.83
960.66	6150.71
960.83	6142.35
961.00	6159.80
961.17	6119.08
961.33	6114.83
961.50	6128.18
961.67	6075.34
961.84	6100.90
962.01	6063.87
962.18	6079.76
962.34	6047.49
962.51	6062.48
962.68	5973.43
962.85	6053.06
963.02	5976.14
963.18	5984.00
963.35	5950.66
963.52	5991.54
963.69	5941.24
963.86	5945.42
964.02	5898.97
964.19	5938.70
964.36	5903.64
964.53	5910.77
964.69	5840.97
964.86	5915.19
965.03	5824.91
965.20	5854.90
965.37	5792.64
965.53	5815.41
965.70	5786.66
965.87	5808.04
966.04	5760.53
966.20	5766.67
966.37	5745.78
966.54	5706.95
966.71	5769.21
966.87	5710.97
967.04	5732.18
967.21	5710.88
967.38	5674.18
967.54	5714.32
967.71	5682.54
967.88	5697.53
968.05	5656.33
968.21	5613.24
968.38	5603.00
968.55	5616.92
968.72	5603.08
968.88	5562.45
969.05	5587.02
969.22	5565.89
969.39	5568.10
969.55	5579.16
969.72	5543.93
969.89	5510.02
970.05	5540.49
970.22	5536.23
970.39	5514.52
970.56	5529.43
970.72	5498.55
970.89	5521.00
971.06	5491.91
971.22	5474.63
971.39	5479.71
971.56	5507.32
971.73	5437.93
971.89	5485.93
972.06	5416.63
972.23	5439.49
972.39	5387.14
972.56	5422.45
972.73	5329.22
972.89	5409.91
973.06	5386.08
973.23	5393.53
973.39	5334.71
973.56	5380.51
973.73	5341.43
973.89	5340.61
974.06	5337.25
974.23	5319.07
974.39	5311.94
974.56	5304.65
974.73	5267.38
974.89	5270.98
975.06	5282.45
975.23	5297.36
975.39	5228.22
975.56	5271.96
975.73	5229.77
975.89	5240.92
976.06	5230.84
976.23	5213.06
976.39	5178.90
976.56	5202.50
976.73	5189.39
976.89	5177.51
977.06	5149.90
977.23	5146.63
977.39	5130.08
977.56	5146.30
977.72	5095.67
977.89	5121.81
978.06	5108.45
978.22	5096.33
978.39	5106.73
978.56	5096.33
978.72	5062.17
978.89	5077.16
979.05	5061.60
979.22	5043.74
979.39	5044.80
979.55	5052.50
979.72	5002.61
979.88	5026.04
980.05	5009.58
980.22	5026.70
980.38	5000.89
980.55	4996.96
980.71	4970.17
980.88	4991.47
981.05	4963.70
981.21	4974.43
981.38	4933.31
981.54	4961.74
981.71	4924.30
981.88	4937.24
982.04	4939.05
982.21	4920.37
982.37	4911.11
982.54	4917.01
982.70	4883.34
982.87	4934.70
983.04	4861.30
983.20	4920.12
983.37	4849.75
983.53	4898.33
983.70	4871.38
983.86	4863.35
984.03	4842.63
984.20	4872.85
984.36	4829.11
984.53	4864.42
984.69	4818.30
984.86	4793.07
985.02	4806.66
985.19	4811.42
985.35	4775.21
985.52	4771.11
985.68	4766.44
985.85	4745.39
986.02	4751.53
986.18	4744.32
986.35	4728.19
986.51	4761.77
986.68	4724.58
986.84	4723.19
987.01	4720.73
987.17	4743.91
987.34	4730.40
987.50	4720.49
987.67	4688.87
987.83	4690.67
988.00	4668.55
988.16	4682.80
988.33	4659.54
988.49	4670.02
988.66	4649.95
988.82	4648.23
988.99	4632.51
989.15	4646.92
989.32	4602.77
989.48	4612.52
989.65	4589.01
989.81	4592.37
989.98	4567.13
990.14	4595.89
990.31	4599.66
990.47	4574.42
990.64	4588.51
990.80	4560.09
990.97	4540.43
991.13	4579.01
991.30	4562.06
991.46	4531.66
991.63	4524.86
991.79	4525.03
991.95	4501.44
992.12	4526.67
992.28	4502.99
992.45	4480.14
992.61	4482.43
992.78	4495.29
992.94	4464.82
993.11	4492.10
993.27	4435.98
993.44	4466.78
993.60	4439.67
993.76	4438.03
993.93	4442.70
994.09	4438.44
994.26	4424.76
994.42	4427.79
994.59	4408.95
994.75	4444.42
994.91	4399.36
995.08	4397.64
995.24	4389.12
995.41	4384.46
995.57	4365.70
995.74	4368.89
995.90	4362.91
996.06	4377.41
996.23	4368.40
996.39	4375.94
996.56	4330.63
996.72	4357.42
996.88	4333.83
997.05	4342.84
997.21	4332.19
997.38	4358.00
997.54	4311.55
997.70	4317.53
997.87	4328.42
998.03	4327.93
998.20	4301.23
998.36	4307.94
998.52	4261.82
998.69	4340.71
998.85	4266.57
999.02	4268.46
999.18	4262.07
999.34	4269.36
999.51	4265.26
999.67	4264.44
999.83	4261.90
1000.00	4267.72
1000.16	4228.07
1000.33	4239.79
1000.49	4211.77
1000.65	4217.75
1000.82	4260.27
1000.98	4211.69
1001.14	4218.82
1001.31	4211.20
1001.47	4203.33
1001.63	4198.66
1001.80	4172.04
1001.96	4178.18
1002.12	4169.91
1002.29	4182.44
1002.45	4170.73
1002.61	4143.86
1002.78	4141.48
1002.94	4151.48
1003.10	4142.71
1003.27	4136.98
1003.43	4131.24
1003.59	4128.38
1003.76	4126.74
1003.92	4139.19
1004.08	4107.16
1004.25	4154.59
1004.41	4113.80
1004.57	4110.93
1004.74	4100.12
1004.90	4137.14
1005.06	4097.41
1005.23	4091.84
1005.39	4099.71
1005.55	4105.52
1005.71	4085.04
1005.88	4069.15
1006.04	4083.24
1006.20	4076.60
1006.37	4036.30
1006.53	4055.88
1006.69	4052.68
1006.85	4063.09
1007.02	4034.91
1007.18	4055.55
1007.34	4032.94
1007.51	4043.43
1007.67	4019.67
1007.83	4011.89
1007.99	3999.44
1008.16	4024.34
1008.32	3977.56
1008.48	4002.96
1008.64	3995.10
1008.81	4033.93
1008.97	3989.03
1009.13	3977.40
1009.29	3972.65
1009.46	3990.84
1009.62	3960.94
1009.78	3958.56
1009.95	3978.55
1010.11	3976.01
1010.27	3928.00
1010.43	3950.20
1010.59	3960.94
1010.76	3941.19
1010.92	3945.70
1011.08	3947.66
1011.24	3907.52
1011.41	3961.02
1011.57	3919.40
1011.73	3917.44
1011.89	3902.36
1012.06	3928.74
1012.22	3885.65
1012.38	3917.19
1012.54	3883.44
1012.70	3883.28
1012.87	3880.16
1013.03	3916.54
1013.19	3883.03
1013.35	3875.74
1013.51	3839.04
1013.68	3851.66
1013.84	3870.58
1014.00	3864.60
1014.16	3823.80
1014.32	3851.74
1014.49	3843.87
1014.65	3877.38
1014.81	3808.48
1014.97	3850.26
1015.13	3821.10
1015.30	3840.11
1015.46	3818.23
1015.62	3846.09
1015.78	3809.55
1015.94	3813.73
1016.10	3790.95
1016.27	3803.57
1016.43	3781.37
1016.59	3813.48
1016.75	3788.17
1016.91	3815.45
1017.07	3777.93
1017.24	3764.41
1017.40	3778.34
1017.56	3791.36
1017.72	3755.48
1017.88	3770.06
1018.04	3760.97
1018.21	3771.54
1018.37	3752.53
1018.53	3772.52
1018.69	3758.19
1018.85	3755.32
1019.01	3727.55
1019.17	3755.73
1019.34	3737.71
1019.50	3714.61
1019.66	3724.60
1019.82	3733.12
1019.98	3720.50
1020.14	3747.70
1020.30	3727.30
1020.46	3716.82
1020.63	3691.59
1020.79	3709.44
1020.95	3736.23
1021.11	3713.54
1021.27	3692.16
1021.43	3702.32
1021.59	3702.15
1021.75	3704.53
1021.91	3673.40
1022.07	3687.41
1022.24	3685.61
1022.40	3686.67
1022.56	3678.73
1022.72	3690.77
1022.88	3636.46
1023.04	3658.82
1023.20	3635.88
1023.36	3662.26
1023.52	3653.25
1023.68	3652.10
1023.84	3639.57
1024.01	3645.79
1024.17	3633.83
1024.33	3632.11
1024.49	3627.94
1024.65	3638.18
1024.81	3626.30
1024.97	3624.09
1025.13	3632.36
1025.29	3630.88
1025.45	3590.91
1025.61	3623.43
1025.77	3605.98
1025.93	3623.76
1026.09	3591.81
1026.25	3611.55
1026.41	3606.80
1026.57	3584.03
1026.73	3616.22
1026.90	3602.21
1027.06	3583.78
1027.22	3601.80
1027.38	3612.21
1027.54	3605.65
1027.70	3588.61
1027.86	3587.63
1028.02	3567.73
1028.18	3586.32
1028.34	3584.85
1028.50	3587.30
1028.66	3568.46
1028.82	3576.24
1028.98	3583.70
1029.14	3559.62
1029.30	3546.59
1029.46	3571.08
1029.62	3557.57
1029.78	3552.82
1029.94	3558.80
1030.10	3548.80
1030.26	3526.19
1030.42	3547.08
1030.58	3535.70
1030.74	3537.91
1030.90	3538.40
1031.06	3531.93
1031.22	3509.81
1031.38	3522.51
1031.54	3514.56
1031.70	3507.92
1031.86	3531.19
1032.02	3514.23
1032.18	3501.37
1032.34	3524.88
1032.50	3509.89
1032.66	3523.33
1032.82	3497.93
1032.98	3532.50
1033.14	3510.96
1033.30	3510.87
1033.45	3482.20
1033.61	3502.60
1033.77	3489.66
1033.93	3488.18
1034.09	3482.20
1034.25	3505.22
1034.41	3480.40
1034.57	3477.45
1034.73	3469.34
1034.89	3466.80
1035.05	3476.30
1035.21	3496.21
1035.37	3462.54
1035.53	3487.28
1035.69	3490.23
1035.85	3470.49
1036.01	3440.83
1036.16	3462.05
1036.32	3446.40
1036.48	3470.08
1036.64	3440.83
1036.80	3468.60
1036.96	3431.90
1037.12	3444.36
1037.28	3448.21
1037.44	3436.08
1037.60	3441.49
1037.76	3439.93
1037.91	3440.83
1038.07	3448.45
1038.23	3438.62
1038.39	3457.79
1038.55	3415.68
1038.71	3458.94
1038.87	3421.58
1039.03	3464.67
1039.19	3430.18
1039.35	3414.78
1039.50	3433.95
1039.66	3447.30
1039.82	3405.03
1039.98	3426.25
1040.14	3417.90
1040.30	3412.49
1040.46	3398.15
1040.62	3410.69
1040.77	3408.88
1040.93	3399.55
1041.09	3397.09
1041.25	3394.47
1041.41	3422.07
1041.57	3408.56
1041.73	3408.56
1041.88	3408.56

