SpectraSuite Data File
++++++++++++++++++++++++++++++++++++
Date: Tue Sep 20 12:18:15 EDT 2022
User: Laboratoire
Dark Spectrum Present: No
Reference Spectrum Present: No
Number of Sampled Component Spectra: 1
Spectrometers: FLMT00174
Integration Time (usec): 15000 (FLMT00174)
Spectra Averaged: 25 (FLMT00174)
Boxcar Smoothing: 0 (FLMT00174)
Correct for Electrical Dark: No (FLMT00174)
Strobe/Lamp Enabled: No (FLMT00174)
Correct for Detector Non-linearity: No (FLMT00174)
Correct for Stray Light: No (FLMT00174)
Number of Pixels in Processed Spectrum: 3648
>>>>>Begin Processed Spectral Data<<<<<
345.74	3187.46
345.96	3187.46
346.18	3187.46
346.39	3185.74
346.61	3217.60
346.83	3237.43
347.05	3216.38
347.27	3226.86
347.49	3231.37
347.71	3239.80
347.93	3226.86
348.15	3248.49
348.36	3237.84
348.58	3242.84
348.80	3210.89
349.02	3238.41
349.24	3209.33
349.46	3278.80
349.68	3267.90
349.90	3267.58
350.11	3270.28
350.33	3267.66
350.55	3269.95
350.77	3271.92
350.99	3259.38
351.21	3276.42
351.43	3253.89
351.65	3289.69
351.86	3242.18
352.08	3272.90
352.30	3253.81
352.52	3291.17
352.74	3260.04
352.96	3260.78
353.18	3289.37
353.39	3269.79
353.61	3263.40
353.83	3271.75
354.05	3285.35
354.27	3287.32
354.49	3278.22
354.70	3254.22
354.92	3266.43
355.14	3269.62
355.36	3255.37
355.58	3270.03
355.80	3257.66
356.02	3268.97
356.23	3279.21
356.45	3279.37
356.67	3281.99
356.89	3283.47
357.11	3285.11
357.33	3280.85
357.54	3259.96
357.76	3272.08
357.98	3272.49
358.20	3274.37
358.42	3274.13
358.63	3270.44
358.85	3283.80
359.07	3289.53
359.29	3239.80
359.51	3268.56
359.73	3257.17
359.94	3261.27
360.16	3256.11
360.38	3257.58
360.60	3244.80
360.82	3281.01
361.03	3264.46
361.25	3278.63
361.47	3270.44
361.69	3288.55
361.91	3266.26
362.12	3273.80
362.34	3262.74
362.56	3272.08
362.78	3257.42
363.00	3284.61
363.21	3276.34
363.43	3287.48
363.65	3258.65
363.87	3264.30
364.09	3290.68
364.30	3283.80
364.52	3274.70
364.74	3280.85
364.96	3247.91
365.17	3281.09
365.39	3277.16
365.61	3277.24
365.83	3281.17
366.05	3260.12
366.26	3267.17
366.48	3277.08
366.70	3289.12
366.92	3265.53
367.13	3262.91
367.35	3262.25
367.57	3279.86
367.79	3268.97
368.01	3287.56
368.22	3295.35
368.44	3264.54
368.66	3281.09
368.88	3269.79
369.09	3274.37
369.31	3285.02
369.53	3267.41
369.75	3255.12
369.96	3289.86
370.18	3260.28
370.40	3287.07
370.62	3279.62
370.83	3297.72
371.05	3308.45
371.27	3294.12
371.49	3242.67
371.70	3283.80
371.92	3291.41
372.14	3278.72
372.36	3255.53
372.57	3302.80
372.79	3293.38
373.01	3287.32
373.22	3285.76
373.44	3287.15
373.66	3281.50
373.88	3286.25
374.09	3274.78
374.31	3290.43
374.53	3276.01
374.75	3299.28
374.96	3295.67
375.18	3298.05
375.40	3273.39
375.61	3278.63
375.83	3268.31
376.05	3298.79
376.27	3288.05
376.48	3281.75
376.70	3304.85
376.92	3295.76
377.13	3277.49
377.35	3280.27
377.57	3274.87
377.79	3285.92
378.00	3285.76
378.22	3293.30
378.44	3272.24
378.65	3316.07
378.87	3283.71
379.09	3302.72
379.30	3275.03
379.52	3296.00
379.74	3294.12
379.96	3281.75
380.17	3277.08
380.39	3290.51
380.61	3279.62
380.82	3301.33
381.04	3277.65
381.26	3297.56
381.47	3302.80
381.69	3313.94
381.91	3292.81
382.12	3305.59
382.34	3302.88
382.56	3297.80
382.77	3292.40
382.99	3313.53
383.21	3292.07
383.42	3320.17
383.64	3294.20
383.86	3309.85
384.07	3310.09
384.29	3311.81
384.51	3309.27
384.72	3321.97
384.94	3301.74
385.16	3297.39
385.37	3295.26
385.59	3305.59
385.81	3314.02
386.02	3314.68
386.24	3324.75
386.46	3325.33
386.67	3313.45
386.89	3354.25
387.11	3348.59
387.32	3324.67
387.54	3339.75
387.76	3333.93
387.97	3369.15
388.19	3354.82
388.40	3330.65
388.62	3357.93
388.84	3363.01
389.05	3351.87
389.27	3342.53
389.49	3366.29
389.70	3344.17
389.92	3357.93
390.14	3351.46
390.35	3382.67
390.57	3360.88
390.78	3369.56
391.00	3354.25
391.22	3341.96
391.43	3354.49
391.65	3360.96
391.86	3383.57
392.08	3376.28
392.30	3354.49
392.51	3360.88
392.73	3391.52
392.95	3367.84
393.16	3353.10
393.38	3373.66
393.59	3349.66
393.81	3373.99
394.03	3374.07
394.24	3380.30
394.46	3345.89
394.67	3368.99
394.89	3380.87
395.11	3387.67
395.32	3401.92
395.54	3385.13
395.75	3381.03
395.97	3372.19
396.19	3359.98
396.40	3391.60
396.62	3372.10
396.83	3367.52
397.05	3375.79
397.26	3386.28
397.48	3375.54
397.70	3389.88
397.91	3403.81
398.13	3376.85
398.34	3389.31
398.56	3408.39
398.78	3402.17
398.99	3408.97
399.21	3379.89
399.42	3420.11
399.64	3402.17
399.85	3405.36
400.07	3389.47
400.29	3414.70
400.50	3396.11
400.72	3425.92
400.93	3423.30
401.15	3404.30
401.36	3429.20
401.58	3426.66
401.79	3436.25
402.01	3441.65
402.23	3440.75
402.44	3462.21
402.66	3451.73
402.87	3462.54
403.09	3461.97
403.30	3459.76
403.52	3454.27
403.73	3461.07
403.95	3484.66
404.16	3489.98
404.38	3483.27
404.60	3474.91
404.81	3495.31
405.03	3512.92
405.24	3521.28
405.46	3537.01
405.67	3520.13
405.89	3538.23
406.10	3516.94
406.32	3542.08
406.53	3564.28
406.75	3589.84
406.96	3571.00
407.18	3588.45
407.39	3567.81
407.61	3598.85
407.82	3595.33
408.04	3617.04
408.25	3607.62
408.47	3617.12
408.68	3627.36
408.90	3616.06
409.12	3643.34
409.33	3644.48
409.55	3621.05
409.76	3641.62
409.98	3633.26
410.19	3652.68
410.41	3652.92
410.62	3677.74
410.84	3638.26
411.05	3688.64
411.27	3693.06
411.48	3677.66
411.70	3686.43
411.91	3691.83
412.12	3682.00
412.34	3659.31
412.55	3665.04
412.77	3677.41
412.98	3676.60
413.20	3678.32
413.41	3686.34
413.63	3696.09
413.84	3675.69
414.06	3681.35
414.27	3685.11
414.49	3690.85
414.70	3666.44
414.92	3673.73
415.13	3660.95
415.35	3681.84
415.56	3685.36
415.78	3674.71
415.99	3685.44
416.21	3664.31
416.42	3677.91
416.63	3700.02
416.85	3684.46
417.06	3676.43
417.28	3674.47
417.49	3688.31
417.71	3663.00
417.92	3662.75
418.14	3664.96
418.35	3692.90
418.57	3682.58
418.78	3707.07
418.99	3666.03
419.21	3699.04
419.42	3664.39
419.64	3676.60
419.85	3684.95
420.07	3699.29
420.28	3678.32
420.50	3689.29
420.71	3684.38
420.92	3695.27
421.14	3729.51
421.35	3692.90
421.57	3686.02
421.78	3732.71
422.00	3714.36
422.21	3724.76
422.42	3726.81
422.64	3711.33
422.85	3737.54
423.07	3732.14
423.28	3724.85
423.50	3737.46
423.71	3765.64
423.92	3788.17
424.14	3762.12
424.35	3790.13
424.57	3799.06
424.78	3795.46
424.99	3808.81
425.21	3796.85
425.42	3814.30
425.64	3824.54
425.85	3833.72
426.06	3854.93
426.28	3850.75
426.49	3884.83
426.71	3872.63
426.92	3876.80
427.13	3889.83
427.35	3929.72
427.56	3920.96
427.78	3934.80
427.99	3970.03
428.20	3966.10
428.42	3999.52
428.63	3990.67
428.84	3986.25
429.06	4007.22
429.27	4044.25
429.49	4041.79
429.70	4074.15
429.91	4055.22
430.13	4080.21
430.34	4097.58
430.56	4129.85
430.77	4155.41
430.98	4119.69
431.20	4181.46
431.41	4193.26
431.62	4215.87
431.84	4215.29
432.05	4240.03
432.26	4258.22
432.48	4247.24
432.69	4323.34
432.91	4294.92
433.12	4330.06
433.33	4337.27
433.55	4402.48
433.76	4379.70
433.97	4374.46
434.19	4390.19
434.40	4425.01
434.61	4443.76
434.83	4466.95
435.04	4440.00
435.25	4480.87
435.47	4497.34
435.68	4472.44
435.89	4541.25
436.11	4502.09
436.32	4554.52
436.53	4531.50
436.75	4531.66
436.96	4559.35
437.17	4535.02
437.39	4543.79
437.60	4552.72
437.81	4584.09
438.03	4578.60
438.24	4573.28
438.45	4627.26
438.67	4570.90
438.88	4632.83
439.09	4637.67
439.31	4613.99
439.52	4629.15
439.73	4595.72
439.94	4565.74
440.16	4612.27
440.37	4563.69
440.58	4584.26
440.80	4581.06
441.01	4570.41
441.22	4637.01
441.44	4606.37
441.65	4578.85
441.86	4596.05
442.08	4589.25
442.29	4578.68
442.50	4580.65
442.71	4562.30
442.93	4579.67
443.14	4534.12
443.35	4583.85
443.57	4548.37
443.78	4545.75
443.99	4567.46
444.20	4525.11
444.42	4545.02
444.63	4522.82
444.84	4551.41
445.06	4576.39
445.27	4535.35
445.48	4518.88
445.69	4538.46
445.91	4520.11
446.12	4513.97
446.33	4509.22
446.54	4535.84
446.76	4505.78
446.97	4507.66
447.18	4494.06
447.39	4524.62
447.61	4520.77
447.82	4536.66
448.03	4535.92
448.25	4530.27
448.46	4562.55
448.67	4545.18
448.88	4535.84
449.10	4546.74
449.31	4560.01
449.52	4554.44
449.73	4565.91
449.95	4583.93
450.16	4544.93
450.37	4582.78
450.58	4629.23
450.79	4578.60
451.01	4586.06
451.22	4592.69
451.43	4583.03
451.64	4644.55
451.86	4624.64
452.07	4622.51
452.28	4641.84
452.49	4699.68
452.71	4671.99
452.92	4683.13
453.13	4693.13
453.34	4710.57
453.55	4728.84
453.77	4758.91
453.98	4750.71
454.19	4755.30
454.40	4748.50
454.62	4786.02
454.83	4778.32
455.04	4833.04
455.25	4807.73
455.46	4946.83
455.68	4884.00
455.89	4878.59
456.10	4900.38
456.31	4925.28
456.52	4922.99
456.74	4967.72
456.95	5029.57
457.16	5009.33
457.37	5072.41
457.58	5070.77
457.80	5055.53
458.01	5082.81
458.22	5216.09
458.43	5163.26
458.64	5192.50
458.86	5177.67
459.07	5249.60
459.28	5276.30
459.49	5308.74
459.70	5407.78
459.91	5374.77
460.13	5377.72
460.34	5431.70
460.55	5442.93
460.76	5509.94
460.97	5560.15
461.19	5539.18
461.40	5673.86
461.61	5625.77
461.82	5684.18
462.03	5710.39
462.24	5744.88
462.46	5743.00
462.67	5794.36
462.88	5887.34
463.09	5861.04
463.30	5950.33
463.51	5943.12
463.72	6044.78
463.94	6071.24
464.15	6119.82
464.36	6069.93
464.57	6226.32
464.78	6249.75
464.99	6279.56
465.20	6267.11
465.42	6362.14
465.63	6386.06
465.84	6415.30
466.05	6499.19
466.26	6520.65
466.47	6578.40
466.68	6553.17
466.90	6666.22
467.11	6652.13
467.32	6740.03
467.53	6807.53
467.74	6716.93
467.95	6820.39
468.16	6885.03
468.37	6953.18
468.59	6947.69
468.80	7044.93
469.01	6957.44
469.22	7067.21
469.43	7193.94
469.64	7117.84
469.85	7211.31
470.06	7216.55
470.28	7247.35
470.49	7148.15
470.70	7237.93
470.91	7323.13
471.12	7282.17
471.33	7376.37
471.54	7350.32
471.75	7330.42
471.96	7474.51
472.17	7422.74
472.39	7568.56
472.60	7418.64
472.81	7559.95
473.02	7503.76
473.23	7597.31
473.44	7599.93
473.65	7586.00
473.86	7604.11
474.07	7575.60
474.28	7615.82
474.49	7726.82
474.71	7662.84
474.92	7721.42
475.13	7613.94
475.34	7676.20
475.55	7676.20
475.76	7652.52
475.97	7798.83
476.18	7717.07
476.39	7793.50
476.60	7797.19
476.81	7765.73
477.02	7820.21
477.23	7781.30
477.44	7768.93
477.65	7827.91
477.87	7886.56
478.08	7847.82
478.29	7845.36
478.50	7941.61
478.71	7860.35
478.92	7895.49
479.13	7902.54
479.34	7893.61
479.55	7902.13
479.76	7892.71
479.97	7868.87
480.18	7978.23
480.39	7865.43
480.60	7971.43
480.81	7978.48
481.02	7958.82
481.23	7917.77
481.44	8021.48
481.65	8076.21
481.86	8101.44
482.07	7990.27
482.28	8191.38
482.49	8063.02
482.71	8085.63
482.92	8145.26
483.13	8136.66
483.34	8137.56
483.55	8172.54
483.76	8113.97
483.97	8222.02
484.18	8232.10
484.39	8210.55
484.60	8191.71
484.81	8271.42
485.02	8261.42
485.23	8329.99
485.44	8367.10
485.65	8383.40
485.86	8353.83
486.07	8417.23
486.28	8401.01
486.49	8457.29
486.70	8491.62
486.91	8558.54
487.12	8511.28
487.33	8529.05
487.54	8662.17
487.75	8652.67
487.96	8696.66
488.17	8643.00
488.38	8752.12
488.59	8720.99
488.80	8780.30
489.01	8739.83
489.22	8874.09
489.43	8876.39
489.64	8855.50
489.85	9034.49
490.06	8911.12
490.26	9037.19
490.47	8972.64
490.68	9129.19
490.89	9232.33
491.10	9099.94
491.31	9213.89
491.52	9307.20
491.73	9290.82
491.94	9274.43
492.15	9437.29
492.36	9485.70
492.57	9464.07
492.78	9490.94
492.99	9548.78
493.20	9651.91
493.41	9719.50
493.62	9719.82
493.83	9761.19
494.04	9822.96
494.25	9916.43
494.46	10001.30
494.67	9943.46
494.88	10098.62
495.08	10132.45
495.29	10173.65
495.50	10323.89
495.71	10295.22
495.92	10402.70
496.13	10421.05
496.34	10452.50
496.55	10526.81
496.76	10702.19
496.97	10632.32
497.18	10768.96
497.39	10811.55
497.60	11015.94
497.81	10932.79
498.02	11085.41
498.22	11015.78
498.43	11251.70
498.64	11311.91
498.85	11375.73
499.06	11406.28
499.27	11609.28
499.48	11407.84
499.69	11637.79
499.90	11692.10
500.11	11838.41
500.32	11956.29
500.52	11915.57
500.73	12131.18
500.94	12197.70
501.15	12258.40
501.36	12275.69
501.57	12317.39
501.78	12439.03
501.99	12647.19
502.20	12650.96
502.41	12747.87
502.61	12790.22
502.82	12991.82
503.03	12911.46
503.24	13227.67
503.45	13123.06
503.66	13331.54
503.87	13385.03
504.08	13534.12
504.28	13558.54
504.49	13649.88
504.70	13747.44
504.91	13907.35
505.12	13824.61
505.33	14083.96
505.54	14118.12
505.75	14189.06
505.95	14338.24
506.16	14320.46
506.37	14306.04
506.58	14645.84
506.79	14472.75
507.00	14786.01
507.21	14721.95
507.41	14759.22
507.62	14878.82
507.83	15036.02
508.04	14971.80
508.25	15172.17
508.46	15098.36
508.67	15323.39
508.87	15216.65
509.08	15430.63
509.29	15390.24
509.50	15452.83
509.71	15541.22
509.92	15617.81
510.12	15478.79
510.33	15677.36
510.54	15632.39
510.75	15780.01
510.96	15845.22
511.17	15965.55
511.37	15978.33
511.58	16071.39
511.79	15946.55
512.00	15893.63
512.21	16096.46
512.42	16119.15
512.62	16174.78
512.83	16157.57
513.04	16124.97
513.25	16219.91
513.46	15929.84
513.66	16320.67
513.87	16166.34
514.08	16278.65
514.29	16134.23
514.50	16158.15
514.71	16286.02
514.91	16135.54
515.12	16105.55
515.33	16159.21
515.54	16057.14
515.75	16160.03
515.95	16013.40
516.16	16031.42
516.37	16108.34
516.58	16104.73
516.78	15987.59
516.99	16110.22
517.20	16008.40
517.41	15949.91
517.62	15960.15
517.82	15862.99
518.03	15999.22
518.24	16081.88
518.45	15731.68
518.66	15843.91
518.86	15708.08
519.07	15814.58
519.28	15548.67
519.49	15720.86
519.69	15668.27
519.90	15647.46
520.11	15654.26
520.32	15466.83
520.52	15597.17
520.73	15332.24
520.94	15430.63
521.15	15345.10
521.36	15214.69
521.56	15384.10
521.77	15112.37
521.98	15248.52
522.19	15103.03
522.39	15118.68
522.60	14977.70
522.81	14938.05
523.02	14873.58
523.22	14872.35
523.43	14844.25
523.64	14736.86
523.84	14738.82
524.05	14835.16
524.26	14712.28
524.47	14575.80
524.67	14602.26
524.88	14573.92
525.09	14617.75
525.30	14446.29
525.50	14364.29
525.71	14395.99
525.92	14367.98
526.13	14415.41
526.33	14322.10
526.54	14198.73
526.75	14229.37
526.95	14246.08
527.16	14055.95
527.37	14199.96
527.58	14166.37
527.78	14054.64
527.99	14105.51
528.20	14146.79
528.40	14024.49
528.61	13932.17
528.82	13992.54
529.03	13921.44
529.23	13876.30
529.44	13879.08
529.65	13882.12
529.85	13887.36
530.06	13860.24
530.27	13812.89
530.47	13700.26
530.68	13920.29
530.89	13671.75
531.09	13805.28
531.30	13668.23
531.51	13583.28
531.72	13679.53
531.92	13659.54
532.13	13704.27
532.34	13667.49
532.54	13629.56
532.75	13645.29
532.96	13593.11
533.16	13616.86
533.37	13695.91
533.58	13555.91
533.78	13648.65
533.99	13584.67
534.20	13468.43
534.40	13555.51
534.61	13611.78
534.82	13593.19
535.02	13628.00
535.23	13589.75
535.44	13634.47
535.64	13607.85
535.85	13602.69
536.06	13588.52
536.26	13644.47
536.47	13580.00
536.68	13737.20
536.88	13591.39
537.09	13792.17
537.29	13596.87
537.50	13825.10
537.71	13701.81
537.91	13767.92
538.12	13792.66
538.33	13760.38
538.53	13810.68
538.74	13819.69
538.95	13816.01
539.15	13796.84
539.36	13978.86
539.56	14008.02
539.77	13880.72
539.98	13842.30
540.18	13974.68
540.39	13903.41
540.60	13972.64
540.80	14049.80
541.01	14009.66
541.21	14032.76
541.42	14061.35
541.63	14106.90
541.83	14173.83
542.04	14114.03
542.25	14223.96
542.45	14283.84
542.66	14267.79
542.86	14345.69
543.07	14205.69
543.28	14471.11
543.48	14429.25
543.69	14629.13
543.89	14555.73
544.10	14722.93
544.31	14668.37
544.51	14678.78
544.72	14772.98
544.92	14720.88
545.13	14863.91
545.33	14893.24
545.54	14815.58
545.75	15008.66
545.95	14877.02
546.16	14879.97
546.36	15097.13
546.57	14948.62
546.78	14824.59
546.98	15023.00
547.19	14973.52
547.39	15205.59
547.60	15296.03
547.80	15517.87
548.01	15622.56
548.22	15546.79
548.42	15601.34
548.63	15760.10
548.83	15738.97
549.04	15820.48
549.24	15770.10
549.45	15892.65
549.65	15996.93
549.86	15940.57
550.07	16031.99
550.27	16172.97
550.48	16242.36
550.68	16265.62
550.89	16289.22
551.09	16449.45
551.30	16371.13
551.50	16575.85
551.71	16498.11
551.91	16599.28
552.12	16676.61
552.33	16807.02
552.53	16661.13
552.74	16984.79
552.94	17032.96
553.15	16996.75
553.35	17136.42
553.56	17057.20
553.76	17246.35
553.97	17165.09
554.17	17361.70
554.38	17687.16
554.58	17478.92
554.79	17728.77
554.99	17547.00
555.20	17625.15
555.40	17805.78
555.61	17762.61
555.81	17709.36
556.02	18114.94
556.22	18059.81
556.43	18107.73
556.63	18198.09
556.84	18235.03
557.04	18491.44
557.25	18257.07
557.45	18463.34
557.66	18538.30
557.86	18503.56
558.07	18739.90
558.27	18606.62
558.48	18643.23
558.68	18674.61
558.89	18813.87
559.09	18901.20
559.30	18940.52
559.50	19019.98
559.71	19026.86
559.91	19352.32
560.12	19293.18
560.32	19338.89
560.53	19487.98
560.73	19415.56
560.94	19532.62
561.14	19446.45
561.35	19584.73
561.55	19567.93
561.76	19613.48
561.96	19377.63
562.17	19618.89
562.37	19685.16
562.57	19621.83
562.78	19722.10
562.98	19900.11
563.19	19850.63
563.39	20014.72
563.60	19985.31
563.80	19885.12
564.01	20091.39
564.21	20020.94
564.42	19984.65
564.62	19970.73
564.82	20190.60
565.03	20044.04
565.23	20131.70
565.44	20275.63
565.64	20206.65
565.85	20277.76
566.05	20241.22
566.25	20321.67
566.46	20197.40
566.66	20294.22
566.87	20203.21
567.07	20113.10
567.28	20138.09
567.48	20342.39
567.68	19944.35
567.89	20349.11
568.09	20079.10
568.30	20078.20
568.50	20119.57
568.71	19980.23
568.91	20158.81
569.11	19897.33
569.32	20057.23
569.52	20046.26
569.73	19742.99
569.93	20052.73
570.13	19853.09
570.34	19808.36
570.54	19960.65
570.75	19827.78
570.95	19755.28
571.15	19743.16
571.36	19855.79
571.56	19708.75
571.77	19699.98
571.97	19475.28
572.17	19692.28
572.38	19555.32
572.58	19688.68
572.79	19519.27
572.99	19464.22
573.19	19398.93
573.40	19255.33
573.60	19278.02
573.81	19207.82
574.01	19235.34
574.21	19067.57
574.42	19112.71
574.62	18953.21
574.82	19079.70
575.03	18789.21
575.23	18998.35
575.43	18745.47
575.64	18700.99
575.84	18754.81
576.05	18471.20
576.25	18533.54
576.45	18517.00
576.66	18516.34
576.86	18325.06
577.06	18369.21
577.27	18247.73
577.47	18214.63
577.67	18207.34
577.88	17900.56
578.08	18031.55
578.28	18090.04
578.49	17906.29
578.69	17893.76
578.89	17806.76
579.10	17775.06
579.30	17974.12
579.50	17797.59
579.71	17654.06
579.91	17763.43
580.11	17535.12
580.32	17418.79
580.52	17339.91
580.72	17409.86
580.93	17097.51
581.13	17162.88
581.33	17249.71
581.54	17056.63
581.74	17011.00
581.94	16988.80
582.15	17104.14
582.35	16879.52
582.55	16828.98
582.76	16662.93
582.96	16871.00
583.16	16693.73
583.37	16806.94
583.57	16672.92
583.77	16898.45
583.97	16450.60
584.18	16729.53
584.38	16568.23
584.58	16359.67
584.79	16432.90
584.99	16280.37
585.19	16186.24
585.40	16123.90
585.60	16208.03
585.80	16069.76
586.00	16135.45
586.21	16076.88
586.41	15991.60
586.61	16022.00
586.82	15905.10
587.02	15797.62
587.22	15874.71
587.42	15733.64
587.63	15783.86
587.83	15506.89
588.03	15606.67
588.23	15440.62
588.44	15501.16
588.64	15419.65
588.84	15467.49
589.05	15538.51
589.25	15514.67
589.45	15535.07
589.65	15505.99
589.86	15456.76
590.06	15463.88
590.26	15225.42
590.46	15343.63
590.67	15112.94
590.87	15313.56
591.07	15241.72
591.27	15034.63
591.48	15125.31
591.68	14963.77
591.88	15226.81
592.08	14967.37
592.29	15028.16
592.49	14930.84
592.69	14964.26
592.89	14813.86
593.10	14914.86
593.30	14741.77
593.50	15059.29
593.70	14684.92
593.90	14940.26
594.11	14846.22
594.31	14793.30
594.51	14856.05
594.71	14767.41
594.92	14718.75
595.12	14655.26
595.32	14678.37
595.52	14697.21
595.72	14518.95
595.93	14707.20
596.13	14558.35
596.33	14537.96
596.53	14598.90
596.73	14584.98
596.94	14528.70
597.14	14595.96
597.34	14507.65
597.54	14573.10
597.74	14509.94
597.95	14573.67
598.15	14562.94
598.35	14587.85
598.55	14527.72
598.75	14517.72
598.96	14494.87
599.16	14454.40
599.36	14462.26
599.56	14411.72
599.76	14274.42
599.97	14419.09
600.17	14323.33
600.37	14430.64
600.57	14245.42
600.77	14544.84
600.97	14413.44
601.18	14573.59
601.38	14459.23
601.58	14516.99
601.78	14372.15
601.98	14357.41
602.18	14363.80
602.39	14494.87
602.59	14487.00
602.79	14416.96
602.99	14526.57
603.19	14619.06
603.39	14546.89
603.60	14510.68
603.80	14553.44
604.00	14424.17
604.20	14420.57
604.40	14531.65
604.60	14459.56
604.80	14446.13
605.01	14557.29
605.21	14539.10
605.41	14489.30
605.61	14535.83
605.81	14606.69
606.01	14737.02
606.21	14559.34
606.42	14723.67
606.62	14636.59
606.82	14775.85
607.02	14669.52
607.22	14773.31
607.42	14789.69
607.62	14694.91
607.82	14718.01
608.03	14849.25
608.23	14789.20
608.43	14762.09
608.63	14837.94
608.83	14728.34
609.03	14805.50
609.23	14851.21
609.43	14836.88
609.63	14836.55
609.84	14743.00
610.04	14923.96
610.24	14930.76
610.44	15043.72
610.64	14969.42
610.84	15069.28
611.04	15122.53
611.24	15052.98
611.44	14855.56
611.64	15140.96
611.85	15180.28
612.05	15279.32
612.25	15219.60
612.45	15197.32
612.65	15290.71
612.85	15283.75
613.05	15142.35
613.25	15347.40
613.45	15331.09
613.65	15402.20
613.85	15263.02
614.05	15374.76
614.25	15379.02
614.46	15455.04
614.66	15414.16
614.86	15436.85
615.06	15499.11
615.26	15581.19
615.46	15443.98
615.66	15742.65
615.86	15797.79
616.06	15740.77
616.26	15829.65
616.46	15993.24
616.66	15815.56
616.86	15999.71
617.06	15851.20
617.26	15955.89
617.46	15905.59
617.66	15866.35
617.86	15757.56
618.07	15936.47
618.27	15907.80
618.47	16020.77
618.67	16104.33
618.87	16201.73
619.07	16117.27
619.27	16150.94
619.47	16116.69
619.67	16372.36
619.87	16232.45
620.07	16488.85
620.27	16520.23
620.47	16409.88
620.67	16631.96
620.87	16526.45
621.07	16618.45
621.27	16521.70
621.47	16539.56
621.67	16651.05
621.87	16590.92
622.07	16796.37
622.27	16828.65
622.47	16805.71
622.67	16690.62
622.87	16675.79
623.07	16926.30
623.27	17102.01
623.47	16869.53
623.67	16980.69
623.87	17079.90
624.07	17073.83
624.27	16902.54
624.47	17033.28
624.67	17119.13
624.87	17225.38
625.07	17248.89
625.27	17539.30
625.47	17395.45
625.67	17489.00
625.87	17526.68
626.07	17589.10
626.27	17676.51
626.47	17666.52
626.67	17605.49
626.87	17586.97
627.07	17615.89
627.27	17563.38
627.47	17530.45
627.67	17452.30
627.87	17390.12
628.07	17504.23
628.27	17469.50
628.47	17413.63
628.67	17591.40
628.86	17634.40
629.06	17626.87
629.26	17720.42
629.46	17857.47
629.66	17792.51
629.86	17682.98
630.06	17918.83
630.26	17922.18
630.46	18102.24
630.66	18012.38
630.86	18136.73
631.06	18119.94
631.26	18169.66
631.46	18313.43
631.66	18367.49
631.86	18110.27
632.06	18249.29
632.26	18119.69
632.45	18040.15
632.65	18126.16
632.85	18198.00
633.05	18057.84
633.25	18111.99
633.45	18021.22
633.65	18193.91
633.85	18544.85
634.05	18162.04
634.25	18330.06
634.45	18294.67
634.65	18430.16
634.84	18366.02
635.04	18495.29
635.24	18436.39
635.44	18590.80
635.64	18567.38
635.84	18670.35
636.04	18603.42
636.24	18604.49
636.44	18649.38
636.64	18293.52
636.84	18648.80
637.03	18295.00
637.23	18405.18
637.43	18338.00
637.63	18333.50
637.83	18292.78
638.03	18367.41
638.23	18054.56
638.43	18346.11
638.62	18361.27
638.82	18125.51
639.02	18481.93
639.22	18420.82
639.42	18477.35
639.62	18419.59
639.82	18439.09
640.02	18513.97
640.21	18499.71
640.41	18302.12
640.61	18461.78
640.81	18416.81
641.01	18291.06
641.21	18256.82
641.41	18315.23
641.61	18103.63
641.80	18162.53
642.00	18284.27
642.20	18354.55
642.40	18045.96
642.60	18042.03
642.80	18070.21
642.99	17830.35
643.19	17992.63
643.39	17822.57
643.59	17964.54
643.79	17966.50
643.99	18032.53
644.19	17892.94
644.38	17867.05
644.58	17968.55
644.78	17965.11
644.98	17960.28
645.18	17840.76
645.38	17892.12
645.57	17700.84
645.77	17528.32
645.97	17521.77
646.17	17576.08
646.37	17537.66
646.56	17477.94
646.76	17413.88
646.96	17313.77
647.16	17280.35
647.36	17274.37
647.55	17316.89
647.75	17346.05
647.95	17287.31
648.15	17395.53
648.35	17311.64
648.55	17318.44
648.74	17286.17
648.94	17277.40
649.14	17421.09
649.34	17135.27
649.54	17180.33
649.73	17119.63
649.93	16976.43
650.13	16911.63
650.33	16975.45
650.52	16969.39
650.72	17150.67
650.92	16922.86
651.12	16850.20
651.32	16891.56
651.51	17024.19
651.71	16923.18
651.91	16875.75
652.11	16749.76
652.30	16651.79
652.50	16628.85
652.70	16579.37
652.90	16368.51
653.10	16418.57
653.29	16258.91
653.49	16421.68
653.69	16195.34
653.89	16258.50
654.08	16128.82
654.28	16263.25
654.48	16089.50
654.68	16141.11
654.87	15806.71
655.07	15889.29
655.27	15865.53
655.47	15761.74
655.66	15717.67
655.86	15658.03
656.06	15763.22
656.26	15619.86
656.45	15720.37
656.65	15777.14
656.85	15646.97
657.04	15522.78
657.24	15507.55
657.44	15476.17
657.64	15477.89
657.83	15237.62
658.03	15422.11
658.23	15307.58
658.43	15158.98
658.62	15158.33
658.82	15081.65
659.02	14968.52
659.21	14884.55
659.41	14805.50
659.61	14843.51
659.81	14788.87
660.00	14705.81
660.20	14711.05
660.40	14637.73
660.59	14807.63
660.79	14710.56
660.99	14923.30
661.19	14873.25
661.38	14962.95
661.58	14767.90
661.78	14876.69
661.97	14744.72
662.17	14736.94
662.37	14435.56
662.56	14337.67
662.76	14296.30
662.96	14265.66
663.15	14201.11
663.35	14254.93
663.55	14243.21
663.74	14049.15
663.94	14122.63
664.14	13922.75
664.33	13962.31
664.53	13931.18
664.73	13987.38
664.93	13897.11
665.12	13906.04
665.32	13805.77
665.52	13804.87
665.71	13807.65
665.91	13884.16
666.10	13788.24
666.30	13887.36
666.50	13813.63
666.69	13820.27
666.89	13900.55
667.09	13955.76
667.28	13750.23
667.48	13538.96
667.68	13504.88
667.87	13396.66
668.07	13370.53
668.27	13426.40
668.46	13448.60
668.66	13361.60
668.86	13438.85
669.05	13273.54
669.25	13424.03
669.44	13317.12
669.64	13334.32
669.84	13243.48
670.03	13388.72
670.23	13232.42
670.43	13252.90
670.62	13202.93
670.82	13218.66
671.01	13286.48
671.21	13213.08
671.41	13160.49
671.60	13233.07
671.80	13154.19
672.00	13046.87
672.19	13061.29
672.39	13079.15
672.58	12983.96
672.78	12983.30
672.98	12993.21
673.17	12931.20
673.37	12740.58
673.56	12829.62
673.76	12944.31
673.96	12996.08
674.15	12947.09
674.35	12996.57
674.54	12946.60
674.74	12890.98
674.94	12832.41
675.13	12876.48
675.33	12702.49
675.52	12804.23
675.72	12765.56
675.91	12743.61
676.11	12809.88
676.31	12763.02
676.50	12746.48
676.70	12773.43
676.89	12775.88
677.09	12811.93
677.28	12656.20
677.48	12547.82
677.68	12532.34
677.87	12479.75
678.07	12423.47
678.26	12486.47
678.46	12419.70
678.65	12541.27
678.85	12523.08
679.04	12432.89
679.24	12385.62
679.44	12399.22
679.63	12397.17
679.83	12447.55
680.02	12474.26
680.22	12389.23
680.41	12409.63
680.61	12456.32
680.80	12382.92
681.00	12560.19
681.19	12531.03
681.39	12482.37
681.59	12465.00
681.78	12388.24
681.98	12410.61
682.17	12225.72
682.37	12311.24
682.56	12297.64
682.76	12356.54
682.95	12364.32
683.15	12461.40
683.34	12430.43
683.54	12374.81
683.73	12390.70
683.93	12110.54
684.12	12226.05
684.32	12218.67
684.51	12009.53
684.71	12154.37
684.90	12154.20
685.10	12203.85
685.29	12191.15
685.49	12332.38
685.68	12293.38
685.88	12280.77
686.07	12211.05
686.27	12296.99
686.46	12232.85
686.66	12113.16
686.85	12161.90
687.05	12135.85
687.24	12089.24
687.44	12131.76
687.63	12196.72
687.83	11999.79
688.02	12185.66
688.22	12200.57
688.41	12194.92
688.61	12207.04
688.80	12205.32
689.00	12104.07
689.19	11988.56
689.39	12174.44
689.58	12204.01
689.77	12164.52
689.97	12208.92
690.16	12194.43
690.36	12098.33
690.55	12149.86
690.75	12233.50
690.94	12101.78
691.14	12060.00
691.33	11990.94
691.53	12087.28
691.72	12019.61
691.91	12050.17
692.11	12056.64
692.30	12177.71
692.50	12162.39
692.69	12119.39
692.89	12204.66
693.08	12327.13
693.28	12349.33
693.47	12304.77
693.66	12319.84
693.86	12283.06
694.05	12236.53
694.25	12215.64
694.44	12129.79
694.64	12141.67
694.83	12126.35
695.02	12151.91
695.22	12290.43
695.41	12222.36
695.61	12208.92
695.80	12164.03
695.99	12165.18
696.19	12201.55
696.38	12213.27
696.58	12151.01
696.77	12361.87
696.96	12348.76
697.16	12359.16
697.35	12279.87
697.55	12324.43
697.74	12185.58
697.93	12338.36
698.13	12257.58
698.32	12316.07
698.52	12307.80
698.71	12249.88
698.90	12390.21
699.10	12267.17
699.29	12249.80
699.49	12350.56
699.68	12375.79
699.87	12408.07
700.07	12543.64
700.26	12593.70
700.45	12545.53
700.65	12520.54
700.84	12644.90
701.04	12524.48
701.23	12582.56
701.42	12498.43
701.62	12439.94
701.81	12464.51
702.00	12429.29
702.20	12391.19
702.39	12442.15
702.58	12516.61
702.78	12543.97
702.97	12496.71
703.17	12475.98
703.36	12572.07
703.55	12471.72
703.75	12450.99
703.94	12514.07
704.13	12445.42
704.33	12541.68
704.52	12548.97
704.71	12584.85
704.91	12512.11
705.10	12507.44
705.29	12505.80
705.49	12592.30
705.68	12558.31
705.87	12612.70
706.07	12554.46
706.26	12661.03
706.45	12619.50
706.65	12659.31
706.84	12753.11
707.03	12830.03
707.23	12687.25
707.42	12658.58
707.61	12813.32
707.80	12734.68
708.00	12719.28
708.19	12809.14
708.38	12987.97
708.58	12803.16
708.77	13008.04
708.96	12794.73
709.16	12737.96
709.35	12872.63
709.54	12698.80
709.74	12697.98
709.93	12723.37
710.12	12889.67
710.31	12953.65
710.51	12911.87
710.70	12896.88
710.89	13027.70
711.09	12847.32
711.28	12900.56
711.47	13021.39
711.66	13042.61
711.86	13050.15
712.05	13154.76
712.24	13180.15
712.43	13146.40
712.63	13091.27
712.82	13220.87
713.01	13095.04
713.21	12999.77
713.40	12995.43
713.59	13136.74
713.78	13030.24
713.98	13072.92
714.17	13121.42
714.36	13082.10
714.55	12973.23
714.75	13123.30
714.94	13110.11
715.13	13187.44
715.32	13022.13
715.52	13133.13
715.71	13086.93
715.90	13047.20
716.09	13024.26
716.29	13186.13
716.48	13047.28
716.67	12895.40
716.86	12996.49
717.06	13054.16
717.25	13131.99
717.44	13233.56
717.63	13308.68
717.82	13168.03
718.02	13232.83
718.21	13368.98
718.40	13383.15
718.59	13311.88
718.79	13209.32
718.98	13288.94
719.17	13302.95
719.36	13334.82
719.55	13232.75
719.75	13326.95
719.94	13310.57
720.13	13524.95
720.32	13540.27
720.51	13422.47
720.71	13421.65
720.90	13263.71
721.09	13326.46
721.28	13135.67
721.47	13317.04
721.67	13298.85
721.86	13308.60
722.05	13296.89
722.24	13237.01
722.43	13367.50
722.63	13346.37
722.82	13474.24
723.01	13431.48
723.20	13393.88
723.39	13392.16
723.58	13516.59
723.78	13390.60
723.97	13589.58
724.16	13538.88
724.35	13631.36
724.54	13580.98
724.73	13720.74
724.93	13527.98
725.12	13559.19
725.31	13338.34
725.50	13435.25
725.69	13534.21
725.88	13492.10
726.08	13424.93
726.27	13616.37
726.46	13426.89
726.65	13650.69
726.84	13411.25
727.03	13494.15
727.23	13577.95
727.42	13558.86
727.61	13537.24
727.80	13525.85
727.99	13567.71
728.18	13524.29
728.37	13412.56
728.56	13389.05
728.76	13421.16
728.95	13537.07
729.14	13513.81
729.33	13439.92
729.52	13551.00
729.71	13517.90
729.90	13565.01
730.09	13540.92
730.29	13681.58
730.48	13533.88
730.67	13625.71
730.86	13542.32
731.05	13626.53
731.24	13567.79
731.43	13459.09
731.62	13414.85
731.81	13384.87
732.01	13544.61
732.20	13364.39
732.39	13414.85
732.58	13370.70
732.77	13269.12
732.96	13481.78
733.15	13578.03
733.34	13501.27
733.53	13588.76
733.72	13603.76
733.92	13543.30
734.11	13567.79
734.30	13495.05
734.49	13577.05
734.68	13523.15
734.87	13502.09
735.06	13454.01
735.25	13462.12
735.44	13354.64
735.63	13305.08
735.82	13314.25
736.01	13243.89
736.20	13243.15
736.40	13336.70
736.59	13354.07
736.78	13373.32
736.97	13223.57
737.16	13348.09
737.35	13327.12
737.54	13423.70
737.73	13322.61
737.92	13410.75
738.11	13413.95
738.30	13344.73
738.49	13321.87
738.68	13258.71
738.87	13303.69
739.06	13138.78
739.25	13199.73
739.44	13141.00
739.63	13087.83
739.82	12998.05
740.01	13088.40
740.20	12947.91
740.39	13053.59
740.59	12966.92
740.78	13107.41
740.97	13091.35
741.16	13098.73
741.35	13153.94
741.54	13110.60
741.73	13031.39
741.92	12855.26
742.11	12920.47
742.30	12862.14
742.49	12799.31
742.68	12896.06
742.87	12888.20
743.06	12813.32
743.25	12930.30
743.44	12901.71
743.63	12954.63
743.82	12833.88
744.01	12861.41
744.20	12769.82
744.39	12859.44
744.58	12788.99
744.77	12626.71
744.96	12566.25
745.15	12682.58
745.34	12572.48
745.53	12680.04
745.72	12585.42
745.91	12600.58
746.10	12580.10
746.29	12676.68
746.48	12588.62
746.67	12518.41
746.86	12500.15
747.04	12416.26
747.23	12422.57
747.42	12493.76
747.61	12403.89
747.80	12561.34
747.99	12360.80
748.18	12485.56
748.37	12337.95
748.56	12183.12
748.75	12196.88
748.94	12126.19
749.13	12108.16
749.32	11974.31
749.51	12012.89
749.70	12006.42
749.89	11979.31
750.08	12024.77
750.27	12024.69
750.46	11995.03
750.65	12109.39
750.84	12005.27
751.02	12095.55
751.21	12103.50
751.40	12129.22
751.59	12099.73
751.78	12018.71
751.97	11994.22
752.16	11919.59
752.35	12058.85
752.54	11960.87
752.73	12039.35
752.92	11965.54
753.11	11882.72
753.30	11949.73
753.49	11948.59
753.67	11907.30
753.86	11847.09
754.05	11930.07
754.24	11828.99
754.43	11826.36
754.62	11782.05
754.81	11608.46
755.00	11588.31
755.19	11525.07
755.38	11414.89
755.56	11460.52
755.75	11554.72
755.94	11488.37
756.13	11528.10
756.32	11494.10
756.51	11500.25
756.70	11544.40
756.89	11492.87
757.08	11444.79
757.26	11428.81
757.45	11416.69
757.64	11321.58
757.83	11379.83
758.02	11245.40
758.21	11227.29
758.40	11303.48
758.59	11283.57
758.77	11162.99
758.96	11198.62
759.15	11225.33
759.34	11186.74
759.53	11173.47
759.72	11186.01
759.91	11086.88
760.09	11133.00
760.28	11146.11
760.47	11019.87
760.66	11060.42
760.85	10941.15
761.04	11037.16
761.23	11067.31
761.41	10967.20
761.60	11003.98
761.79	10961.55
761.98	10915.18
762.17	10935.91
762.36	10855.14
762.54	10903.39
762.73	10917.48
762.92	10768.14
763.11	10844.08
763.30	10832.20
763.49	10765.93
763.67	10768.30
763.86	10743.97
764.05	10833.02
764.24	10769.04
764.43	10803.04
764.61	10665.00
764.80	10598.81
764.99	10617.33
765.18	10435.55
765.37	10536.88
765.55	10552.77
765.74	10537.78
765.93	10523.86
766.12	10624.12
766.31	10568.26
766.49	10607.41
766.68	10563.91
766.87	10583.33
767.06	10543.93
767.25	10555.07
767.43	10514.35
767.62	10448.49
767.81	10491.58
768.00	10347.24
768.19	10233.86
768.37	10242.22
768.56	10210.11
768.75	10250.90
768.94	10243.28
769.12	10123.60
769.31	10168.49
769.50	10128.43
769.69	10181.68
769.88	10099.44
770.06	10261.06
770.25	10219.77
770.44	10166.94
770.63	10309.31
770.81	10231.08
771.00	10249.67
771.19	10153.75
771.38	10150.55
771.56	10203.96
771.75	10125.24
771.94	10176.03
772.13	10165.63
772.31	10140.72
772.50	10169.39
772.69	10104.68
772.88	10066.01
773.06	9899.80
773.25	9979.67
773.44	9933.63
773.62	9940.68
773.81	9961.24
774.00	9887.02
774.19	9877.52
774.37	9804.94
774.56	9862.20
774.75	9714.50
774.94	9807.80
775.12	9765.37
775.31	9812.64
775.50	9856.87
775.68	9793.88
775.87	9807.15
776.06	9738.42
776.25	9801.74
776.43	9745.96
776.62	9846.06
776.81	9721.13
776.99	9722.28
777.18	9682.06
777.37	9581.71
777.55	9649.54
777.74	9626.03
777.93	9620.29
778.12	9607.68
778.30	9594.24
778.49	9589.90
778.68	9622.91
778.86	9640.03
779.05	9661.91
779.24	9664.94
779.42	9599.40
779.61	9554.92
779.80	9532.39
779.98	9555.74
780.17	9584.99
780.36	9463.75
780.54	9492.17
780.73	9361.67
780.92	9462.93
781.10	9482.67
781.29	9427.37
781.48	9448.51
781.66	9477.02
781.85	9536.82
782.04	9461.21
782.22	9582.61
782.41	9415.58
782.60	9468.25
782.78	9434.09
782.97	9468.25
783.16	9393.70
783.34	9417.13
783.53	9445.72
783.71	9394.11
783.90	9400.01
784.09	9445.15
784.27	9421.72
784.46	9448.67
784.65	9462.60
784.83	9424.59
785.02	9438.51
785.20	9491.60
785.39	9331.53
785.58	9381.99
785.76	9380.43
785.95	9343.49
786.14	9334.56
786.32	9326.53
786.51	9307.94
786.69	9336.12
786.88	9278.04
787.07	9324.73
787.25	9394.44
787.44	9454.49
787.62	9485.29
787.81	9546.89
788.00	9579.33
788.18	9625.86
788.37	9562.46
788.55	9725.72
788.74	9628.48
788.93	9706.31
789.11	9738.99
789.30	9671.98
789.48	9616.44
789.67	9601.53
789.86	9507.24
790.04	9477.18
790.23	9401.08
790.41	9410.01
790.60	9492.42
790.78	9487.91
790.97	9355.12
791.16	9403.21
791.34	9506.67
791.53	9382.97
791.71	9504.38
791.90	9420.41
792.08	9467.19
792.27	9467.68
792.46	9426.88
792.64	9440.40
792.83	9409.52
793.01	9428.85
793.20	9397.72
793.38	9403.04
793.57	9460.88
793.75	9417.71
793.94	9513.31
794.12	9557.13
794.31	9498.72
794.50	9575.56
794.68	9585.64
794.87	9582.86
795.05	9617.43
795.24	9565.73
795.42	9561.15
795.61	9621.68
795.79	9642.08
795.98	9531.66
796.16	9574.01
796.35	9568.93
796.53	9520.52
796.72	9604.56
796.90	9595.63
797.09	9597.60
797.27	9629.96
797.46	9622.91
797.64	9643.23
797.83	9654.78
798.01	9628.07
798.20	9701.39
798.38	9533.62
798.57	9692.46
798.75	9645.93
798.94	9619.64
799.12	9797.89
799.31	9751.53
799.49	9801.17
799.68	9726.70
799.86	9795.35
800.05	9764.39
800.23	9856.46
800.42	9802.64
800.60	9879.07
800.79	9780.36
800.97	9844.01
801.16	9906.68
801.34	9810.75
801.53	9771.68
801.71	9802.81
801.90	9767.91
802.08	9789.37
802.27	9741.78
802.45	9688.94
802.64	9756.36
802.82	9740.88
803.00	9684.43
803.19	9704.50
803.37	9727.93
803.56	9602.84
803.74	9650.11
803.93	9662.07
804.11	9647.00
804.30	9596.78
804.48	9711.39
804.67	9708.85
804.85	9706.80
805.03	9851.63
805.22	9812.15
805.40	9714.50
805.59	9761.19
805.77	9738.17
805.96	9647.00
806.14	9613.66
806.32	9713.19
806.51	9792.57
806.69	9741.86
806.88	9822.63
807.06	9889.15
807.25	9959.76
807.43	9965.74
807.61	9970.49
807.80	9898.41
807.98	9920.03
808.17	9888.99
808.35	9865.07
808.53	9967.05
808.72	9935.68
808.90	9879.32
809.09	9851.06
809.27	9804.12
809.45	9717.86
809.64	9756.03
809.82	9657.81
810.01	9747.51
810.19	9774.30
810.37	9814.77
810.56	9802.48
810.74	9887.68
810.93	9807.31
811.11	9848.52
811.29	9757.18
811.48	9866.05
811.66	9814.77
811.84	9768.24
812.03	9751.61
812.21	9759.88
812.40	9786.26
812.58	9807.31
812.76	9699.34
812.95	9796.01
813.13	9699.67
813.31	9839.75
813.50	9878.01
813.68	9866.46
813.86	9975.25
814.05	10049.96
814.23	9948.29
814.42	10106.32
814.60	9980.41
814.78	9953.46
814.97	9923.88
815.15	9895.13
815.33	9854.74
815.52	9792.98
815.70	9820.26
815.88	9835.90
816.07	9815.91
816.25	9893.82
816.43	9909.22
816.62	9803.87
816.80	9860.15
816.98	9796.42
817.17	9766.52
817.35	9786.18
817.53	9791.50
817.72	9810.92
817.90	9737.52
818.08	9722.53
818.26	9817.88
818.45	9745.55
818.63	9826.73
818.81	9862.77
819.00	9792.81
819.18	9912.91
819.36	9895.21
819.55	9964.76
819.73	9888.58
819.91	9883.33
820.09	9903.32
820.28	9954.60
820.46	9914.54
820.64	10057.90
820.83	9976.31
821.01	10054.13
821.19	9980.49
821.38	10005.80
821.56	9930.19
821.74	9880.38
821.92	9843.03
822.11	9928.06
822.29	9781.02
822.47	9895.62
822.65	9939.37
822.84	9953.46
823.02	9856.05
823.20	9960.17
823.39	9789.13
823.57	9809.03
823.75	9787.24
823.93	9779.38
824.12	9824.84
824.30	9797.65
824.48	9778.23
824.66	9889.80
824.85	9776.76
825.03	9938.38
825.21	10002.03
825.39	9989.34
825.58	9997.61
825.76	9998.02
825.94	10002.03
826.12	10007.69
826.31	9974.84
826.49	10028.49
826.67	10026.20
826.85	10050.86
827.03	10088.87
827.22	10074.53
827.40	10092.88
827.58	10094.85
827.76	10143.10
827.95	10105.09
828.13	10131.96
828.31	10085.26
828.49	10067.98
828.67	10075.11
828.86	10012.19
829.04	9952.23
829.22	9952.80
829.40	9938.30
829.58	9935.35
829.77	9963.53
829.95	9946.17
830.13	9907.17
830.31	9846.88
830.49	9936.83
830.68	9898.41
830.86	9916.43
831.04	9921.26
831.22	9932.81
831.40	9954.03
831.59	9987.78
831.77	9914.71
831.95	10041.85
832.13	9989.25
832.31	10118.77
832.50	10135.56
832.68	10178.57
832.86	10247.71
833.04	10318.24
833.22	10200.11
833.40	10324.22
833.59	10192.99
833.77	10269.91
833.95	10025.71
834.13	10218.54
834.31	9998.51
834.49	10035.54
834.67	10002.03
834.86	10041.85
835.04	10039.80
835.22	10012.93
835.40	10015.63
835.58	9970.17
835.76	10000.40
835.95	10055.69
836.13	10079.61
836.31	10084.77
836.49	10179.22
836.67	10219.45
836.85	10104.84
837.03	10132.37
837.21	10160.63
837.40	10178.08
837.58	10091.65
837.76	10194.30
837.94	10219.36
838.12	10291.29
838.30	10196.51
838.48	10204.29
838.66	10164.07
838.85	10162.59
839.03	10186.11
839.21	10211.75
839.39	10194.30
839.57	10279.33
839.75	10218.79
839.93	10211.25
840.11	10257.37
840.29	10205.11
840.47	10216.91
840.66	10184.22
840.84	10156.37
841.02	10078.63
841.20	10069.62
841.38	10086.00
841.56	10056.92
841.74	10154.40
841.92	10052.25
842.10	10067.57
842.28	10093.13
842.46	10055.36
842.65	10074.61
842.83	10166.28
843.01	10206.91
843.19	10098.45
843.37	10189.79
843.55	10190.69
843.73	10258.19
843.91	10253.52
844.09	10259.50
844.27	10285.64
844.45	10196.18
844.63	10219.77
844.81	10152.44
844.99	10194.13
845.17	10098.70
845.35	10189.96
845.54	10097.55
845.72	10080.68
845.90	10089.11
846.08	10113.53
846.26	10073.55
846.44	10217.56
846.62	10102.22
846.80	10190.94
846.98	10182.83
847.16	10179.31
847.34	10215.51
847.52	10200.69
847.70	10207.57
847.88	10265.89
848.06	10257.54
848.24	10289.08
848.42	10302.92
848.60	10311.19
848.78	10368.29
848.96	10359.53
849.14	10307.02
849.32	10419.41
849.50	10329.38
849.68	10434.32
849.86	10404.58
850.04	10358.71
850.22	10365.43
850.40	10239.52
850.58	10295.71
850.76	10392.13
850.94	10140.72
851.12	10336.26
851.30	10284.24
851.48	10353.38
851.66	10319.55
851.84	10340.85
852.02	10307.18
852.20	10318.08
852.38	10291.62
852.56	10312.18
852.74	10293.99
852.92	10241.24
853.10	10289.90
853.28	10255.08
853.46	10077.97
853.64	10193.64
853.82	10141.95
854.00	10192.99
854.18	10150.96
854.36	10155.22
854.54	10188.48
854.72	10139.25
854.90	10149.41
855.07	10226.33
855.25	10199.13
855.43	10228.70
855.61	10193.15
855.79	10215.68
855.97	10211.50
856.15	10183.81
856.33	10143.75
856.51	10214.53
856.69	10092.88
856.87	10102.14
857.05	10121.55
857.23	10100.17
857.41	10052.99
857.59	10075.92
857.77	10051.68
857.94	10051.10
858.12	10123.93
858.30	10094.19
858.48	10080.18
858.66	10099.52
858.84	10190.61
859.02	10097.80
859.20	10128.52
859.38	10293.75
859.56	10292.68
859.74	10271.14
859.92	10319.14
860.09	10272.12
860.27	10261.96
860.45	10115.90
860.63	10126.96
860.81	10198.07
860.99	10151.13
861.17	10091.82
861.35	9982.95
861.53	9926.83
861.70	9885.30
861.88	10033.49
862.06	10104.35
862.24	9997.61
862.42	9930.44
862.60	10022.43
862.78	9980.90
862.96	10042.17
863.14	9976.39
863.31	10000.40
863.49	9998.92
863.67	9980.41
863.85	9984.75
864.03	10000.40
864.21	10029.64
864.39	10001.05
864.56	9994.09
864.74	10061.92
864.92	10090.42
865.10	10015.47
865.28	10020.14
865.46	10118.44
865.64	9895.38
865.81	9991.88
865.99	9870.47
866.17	9981.55
866.35	9839.59
866.53	9848.60
866.71	9872.19
866.88	9945.76
867.06	9876.78
867.24	9968.37
867.42	9929.54
867.60	10019.07
867.78	9971.72
867.95	10102.71
868.13	9963.37
868.31	10060.20
868.49	10070.85
868.67	10002.12
868.84	9889.97
869.02	9946.82
869.20	9711.63
869.38	9861.71
869.56	9807.31
869.73	9748.58
869.91	9818.86
870.09	9801.91
870.27	9806.41
870.45	9797.40
870.62	9765.12
870.80	9858.59
870.98	9786.67
871.16	9767.66
871.34	9736.53
871.51	9788.55
871.69	9710.89
871.87	9740.63
872.05	9740.79
872.23	9759.80
872.40	9725.48
872.58	9795.76
872.76	9801.58
872.94	9788.96
873.11	9766.84
873.29	9709.75
873.47	9738.42
873.65	9714.33
873.83	9752.84
874.00	9755.21
874.18	9733.42
874.36	9769.47
874.54	9801.33
874.71	9687.14
874.89	9618.00
875.07	9652.90
875.25	9606.78
875.42	9632.09
875.60	9516.09
875.78	9585.48
875.96	9483.32
876.13	9586.71
876.31	9462.84
876.49	9503.48
876.66	9419.35
876.84	9571.47
877.02	9440.56
877.20	9482.50
877.37	9483.98
877.55	9490.70
877.73	9524.86
877.91	9440.40
878.08	9480.87
878.26	9480.87
878.44	9442.36
878.61	9444.17
878.79	9409.92
878.97	9398.21
879.15	9491.19
879.32	9421.31
879.50	9416.23
879.68	9514.21
879.85	9401.81
880.03	9488.98
880.21	9369.78
880.38	9434.75
880.56	9300.32
880.74	9365.61
880.92	9287.13
881.09	9372.08
881.27	9341.03
881.45	9409.35
881.62	9407.30
881.80	9358.40
881.98	9375.76
882.15	9456.29
882.33	9369.21
882.51	9403.13
882.68	9272.55
882.86	9315.88
883.04	9216.02
883.21	9196.94
883.39	9235.85
883.57	9132.88
883.74	9137.71
883.92	9226.02
884.10	9178.09
884.27	9208.00
884.45	9158.27
884.63	9235.77
884.80	9179.16
884.98	9252.23
885.16	9225.69
885.33	9273.69
885.51	9261.73
885.69	9308.76
885.86	9227.16
886.04	9269.27
886.21	9197.67
886.39	9269.11
886.57	9184.48
886.74	9355.04
886.92	9299.25
887.10	9352.25
887.27	9333.41
887.45	9359.79
887.62	9330.63
887.80	9376.58
887.98	9392.80
888.15	9286.47
888.33	9178.75
888.51	9248.30
888.68	9137.71
888.86	9164.66
889.03	9081.76
889.21	9141.97
889.39	9106.74
889.56	9100.52
889.74	9083.64
889.91	9052.84
890.09	9064.80
890.27	9082.99
890.44	9073.24
890.62	9110.43
890.79	9170.64
890.97	9239.12
891.14	9227.33
891.32	9298.68
891.50	9270.58
891.67	9316.87
891.85	9289.34
892.02	9247.07
892.20	9269.35
892.38	9218.48
892.55	9167.36
892.73	9227.82
892.90	9100.27
893.08	9183.26
893.25	9175.15
893.43	9237.90
893.60	9160.65
893.78	9273.69
893.96	9247.97
894.13	9309.41
894.31	9317.85
894.48	9368.47
894.66	9359.71
894.83	9418.44
895.01	9405.01
895.18	9413.86
895.36	9363.97
895.53	9330.79
895.71	9291.39
895.89	9286.23
896.06	9225.53
896.24	9248.38
896.41	9187.11
896.59	9198.08
896.76	9070.13
896.94	9183.91
897.11	9199.07
897.29	9235.03
897.46	9137.87
897.64	9180.88
897.81	9103.22
897.99	9079.06
898.16	9129.60
898.34	9142.05
898.51	9124.60
898.69	9136.40
898.86	9206.36
899.04	9205.13
899.21	9194.15
899.39	9226.34
899.56	9146.97
899.74	9227.41
899.91	9098.31
900.09	9119.11
900.26	9152.45
900.44	9104.20
900.61	9089.21
900.79	9151.06
900.96	9057.10
901.14	9032.28
901.31	9055.95
901.49	9018.60
901.66	9002.46
901.84	9050.38
902.01	8962.08
902.19	9009.59
902.36	8967.15
902.54	8984.60
902.71	8987.22
902.88	9050.79
903.06	8929.55
903.23	9060.87
903.41	9017.78
903.58	9001.40
903.76	8915.95
903.93	9015.32
904.11	9015.90
904.28	8923.90
904.45	8884.50
904.63	8885.64
904.80	8812.90
904.98	8858.28
905.15	8750.81
905.33	8800.37
905.50	8773.50
905.68	8803.32
905.85	8772.35
906.02	8768.83
906.20	8767.44
906.37	8678.23
906.55	8652.50
906.72	8750.15
906.90	8664.38
907.07	8640.87
907.24	8617.77
907.42	8583.53
907.59	8599.58
907.77	8574.93
907.94	8583.69
908.11	8603.19
908.29	8618.43
908.46	8679.29
908.64	8659.88
908.81	8713.53
908.98	8661.27
909.16	8665.45
909.33	8614.00
909.51	8588.61
909.68	8622.93
909.85	8603.03
910.03	8573.62
910.20	8580.25
910.37	8492.03
910.55	8548.96
910.72	8467.04
910.90	8477.61
911.07	8456.14
911.24	8417.40
911.42	8417.81
911.59	8326.80
911.76	8363.90
911.94	8307.54
912.11	8283.21
912.29	8228.66
912.46	8172.54
912.63	8178.85
912.81	8101.76
912.98	8203.02
913.15	8138.55
913.33	8177.05
913.50	8136.91
913.67	8108.32
913.85	8070.72
914.02	8054.99
914.19	8076.78
914.37	8049.91
914.54	8062.77
914.71	8091.93
914.89	8069.08
915.06	8060.48
915.23	7972.17
915.41	7935.72
915.58	7932.11
915.75	7886.97
915.93	7897.30
916.10	7858.88
916.27	7815.54
916.45	7804.73
916.62	7785.31
916.79	7836.02
916.97	7788.02
917.14	7826.60
917.31	7793.34
917.49	7821.68
917.66	7836.35
917.83	7794.57
918.00	7804.65
918.18	7758.36
918.35	7748.78
918.52	7728.62
918.70	7637.45
918.87	7641.38
919.04	7626.80
919.21	7590.10
919.39	7520.71
919.56	7562.90
919.73	7472.87
919.91	7503.59
920.08	7482.79
920.25	7428.56
920.42	7469.35
920.60	7452.48
920.77	7436.42
920.94	7461.49
921.11	7387.51
921.29	7424.54
921.46	7366.71
921.63	7422.25
921.81	7375.47
921.98	7377.60
922.15	7327.06
922.32	7380.55
922.50	7331.07
922.67	7325.42
922.84	7289.05
923.01	7272.42
923.19	7236.13
923.36	7236.05
923.53	7116.86
923.70	7167.32
923.87	7152.82
924.05	7145.85
924.22	7106.12
924.39	7179.36
924.56	7078.11
924.74	7132.67
924.91	7096.05
925.08	7124.06
925.25	7104.73
925.43	7109.89
925.60	7024.61
925.77	7108.01
925.94	7014.37
926.11	7044.85
926.29	7025.68
926.46	7055.17
926.63	7046.41
926.80	7055.66
926.97	7017.49
927.15	7063.12
927.32	6981.53
927.49	6955.23
927.66	6929.02
927.83	6948.18
928.01	6860.94
928.18	6843.00
928.35	6786.89
928.52	6821.05
928.69	6743.47
928.87	6753.79
929.04	6741.67
929.21	6758.21
929.38	6661.63
929.55	6719.14
929.72	6680.47
929.90	6690.71
930.07	6635.34
930.24	6595.93
930.41	6566.36
930.58	6577.42
930.75	6584.96
930.93	6546.62
931.10	6564.40
931.27	6485.18
931.44	6487.56
931.61	6498.53
931.78	6528.84
931.95	6507.46
932.13	6474.12
932.30	6538.35
932.47	6452.66
932.64	6487.31
932.81	6483.30
932.98	6453.07
933.15	6413.34
933.33	6398.26
933.50	6411.86
933.67	6341.41
933.84	6349.28
934.01	6343.13
934.18	6325.93
934.35	6318.80
934.52	6258.92
934.70	6282.92
934.87	6245.08
935.04	6247.45
935.21	6229.02
935.38	6225.50
935.55	6220.99
935.72	6248.52
935.89	6186.83
936.06	6225.33
936.24	6185.28
936.41	6261.95
936.58	6230.58
936.75	6178.39
936.92	6202.48
937.09	6211.08
937.26	6172.82
937.43	6177.82
937.60	6208.46
937.77	6197.73
937.94	6162.99
938.12	6152.92
938.29	6114.42
938.46	6109.25
938.63	6060.51
938.80	6100.82
938.97	6053.47
939.14	6024.55
939.31	6013.90
939.48	6006.61
939.65	5962.87
939.82	5962.46
939.99	5980.40
940.16	5990.96
940.33	5966.47
940.50	5986.29
940.67	5955.98
940.85	5978.10
941.02	5985.31
941.19	5970.65
941.36	5956.97
941.53	6013.49
941.70	5990.80
941.87	5952.38
942.04	5928.05
942.21	5942.55
942.38	5897.49
942.55	5874.72
942.72	5862.02
942.89	5833.19
943.06	5786.33
943.23	5807.55
943.40	5770.11
943.57	5791.82
943.74	5767.57
943.91	5786.00
944.08	5776.66
944.25	5824.26
944.42	5739.80
944.59	5733.66
944.76	5732.35
944.93	5726.86
945.10	5707.93
945.27	5711.70
945.44	5633.39
945.61	5662.06
945.78	5615.12
945.95	5663.62
946.12	5595.71
946.29	5651.82
946.46	5641.83
946.63	5607.91
946.80	5606.27
946.97	5610.21
947.14	5568.84
947.31	5646.58
947.48	5570.80
947.65	5573.75
947.82	5554.50
947.99	5588.17
948.16	5559.33
948.33	5544.67
948.50	5510.67
948.67	5541.15
948.84	5506.74
949.01	5507.89
949.18	5482.41
949.35	5517.72
949.52	5476.19
949.68	5494.54
949.85	5463.16
950.02	5440.88
950.19	5420.07
950.36	5404.43
950.53	5374.36
950.70	5378.13
950.87	5358.88
951.04	5393.04
951.21	5357.90
951.38	5355.52
951.55	5382.55
951.72	5367.48
951.89	5351.75
952.06	5392.06
952.23	5361.42
952.39	5366.99
952.56	5336.76
952.73	5370.92
952.90	5307.93
953.07	5379.28
953.24	5311.37
953.41	5352.24
953.58	5291.62
953.75	5342.99
953.92	5294.33
954.09	5295.97
954.25	5238.05
954.42	5272.29
954.59	5232.64
954.76	5239.36
954.93	5198.32
955.10	5212.08
955.27	5192.01
955.44	5185.37
955.61	5178.90
955.77	5183.98
955.94	5161.54
956.11	5144.33
956.28	5153.26
956.45	5155.80
956.62	5147.36
956.79	5172.43
956.96	5145.07
957.12	5142.61
957.29	5131.23
957.46	5128.93
957.63	5109.19
957.80	5135.73
957.97	5099.03
958.14	5173.74
958.30	5116.40
958.47	5116.97
958.64	5098.05
958.81	5129.51
958.98	5090.43
959.15	5092.40
959.32	5089.20
959.48	5056.52
959.65	4999.58
959.82	5027.85
959.99	4984.18
960.16	5016.54
960.33	4990.24
960.49	4978.53
960.66	4951.25
960.83	4953.14
961.00	4969.60
961.17	4968.45
961.33	4957.89
961.50	4961.57
961.67	4937.82
961.84	4990.65
962.01	4950.19
962.18	4966.49
962.34	4936.59
962.51	4946.75
962.68	4900.22
962.85	4986.48
963.02	4928.72
963.18	4969.52
963.35	4949.12
963.52	4950.10
963.69	4938.31
963.86	4935.85
964.02	4888.50
964.19	4905.38
964.36	4860.65
964.53	4869.00
964.69	4836.07
964.86	4886.94
965.03	4788.64
965.20	4853.85
965.37	4783.73
965.53	4808.47
965.70	4799.54
965.87	4823.38
966.04	4781.60
966.20	4802.73
966.37	4799.87
966.54	4785.94
966.71	4806.83
966.87	4780.12
967.04	4782.09
967.21	4783.15
967.38	4769.72
967.54	4780.94
967.71	4755.38
967.88	4786.84
968.05	4746.21
968.21	4774.88
968.38	4757.02
968.55	4773.65
968.72	4734.17
968.88	4723.03
969.05	4740.47
969.22	4709.84
969.39	4716.47
969.55	4711.97
969.72	4696.89
969.89	4697.30
970.05	4724.83
970.22	4692.39
970.39	4671.17
970.56	4696.81
970.72	4684.20
970.89	4681.08
971.06	4650.45
971.22	4675.43
971.39	4666.83
971.56	4688.29
971.73	4635.29
971.89	4650.69
972.06	4603.18
972.23	4647.00
972.39	4585.40
972.56	4626.85
972.73	4586.39
972.89	4629.97
973.06	4624.31
973.23	4624.80
973.39	4595.15
973.56	4611.53
973.73	4582.94
973.89	4593.27
974.06	4566.23
974.23	4552.06
974.39	4553.54
974.56	4558.53
974.73	4535.02
974.89	4541.82
975.06	4530.27
975.23	4540.92
975.39	4502.42
975.56	4526.91
975.73	4523.64
975.89	4511.18
976.06	4503.81
976.23	4508.07
976.39	4494.06
976.56	4508.81
976.73	4478.25
976.89	4473.50
977.06	4476.61
977.23	4460.15
977.39	4469.24
977.56	4494.47
977.72	4470.72
977.89	4508.23
978.06	4479.89
978.22	4477.35
978.39	4484.07
978.56	4498.24
978.72	4464.49
978.89	4475.06
979.05	4448.93
979.22	4458.26
979.39	4406.33
979.55	4416.81
979.72	4386.75
979.88	4407.06
980.05	4373.89
980.22	4409.28
980.38	4357.59
980.55	4352.59
980.71	4347.67
980.88	4358.00
981.05	4359.72
981.21	4341.04
981.38	4340.46
981.54	4386.59
981.71	4343.00
981.88	4353.90
982.04	4338.50
982.21	4359.55
982.37	4330.96
982.54	4380.85
982.70	4328.75
982.87	4354.31
983.04	4328.18
983.20	4359.06
983.37	4315.89
983.53	4316.38
983.70	4320.23
983.86	4322.93
984.03	4288.61
984.20	4276.65
984.36	4262.40
984.53	4294.43
984.69	4252.48
984.86	4267.39
985.02	4288.12
985.19	4291.56
985.35	4273.87
985.52	4316.14
985.68	4266.08
985.85	4272.23
986.02	4277.63
986.18	4263.46
986.35	4267.80
986.51	4271.98
986.68	4283.29
986.84	4277.31
987.01	4235.94
987.17	4280.75
987.34	4240.61
987.50	4274.52
987.67	4228.89
987.83	4286.15
988.00	4241.18
988.16	4241.83
988.33	4235.45
988.49	4229.55
988.66	4210.71
988.82	4206.28
988.99	4168.60
989.15	4200.30
989.32	4152.54
989.48	4149.18
989.65	4134.11
989.81	4152.95
989.98	4132.47
990.14	4151.89
990.31	4142.63
990.47	4162.13
990.64	4130.18
990.80	4133.05
990.97	4115.60
991.13	4115.02
991.30	4126.33
991.46	4101.67
991.63	4104.54
991.79	4142.14
991.95	4120.76
992.12	4146.56
992.28	4147.05
992.45	4150.17
992.61	4139.35
992.78	4123.54
992.94	4121.17
993.11	4133.70
993.27	4102.49
993.44	4128.30
993.60	4108.23
993.76	4086.35
993.93	4106.26
994.09	4115.93
994.26	4075.54
994.42	4114.53
994.59	4061.04
994.75	4103.06
994.91	4055.63
995.08	4051.37
995.24	4045.15
995.41	4035.07
995.57	4038.51
995.74	4044.57
995.90	4025.00
996.06	4025.08
996.23	4043.67
996.39	4014.59
996.56	4011.73
996.72	4010.99
996.88	4012.95
997.05	4007.55
997.21	3988.05
997.38	3999.52
997.54	3978.06
997.70	4013.85
997.87	3991.25
998.03	4013.45
998.20	3967.98
998.36	3977.65
998.52	3971.99
998.69	4035.97
998.85	3974.29
999.02	3990.84
999.18	4002.96
999.34	3986.58
999.51	3995.59
999.67	4010.09
999.83	3977.07
1000.00	3992.15
1000.16	3970.52
1000.33	3992.97
1000.49	3969.95
1000.65	3981.01
1000.82	3994.19
1000.98	3956.18
1001.14	3958.31
1001.31	3979.53
1001.47	3962.49
1001.63	3957.49
1001.80	3937.18
1001.96	3949.47
1002.12	3945.21
1002.29	3936.85
1002.45	3934.31
1002.61	3939.31
1002.78	3934.15
1002.94	3928.00
1003.10	3924.40
1003.27	3919.40
1003.43	3889.01
1003.59	3933.74
1003.76	3917.60
1003.92	3914.24
1004.08	3894.83
1004.25	3906.54
1004.41	3879.92
1004.57	3886.06
1004.74	3847.97
1004.90	3886.96
1005.06	3854.52
1005.23	3877.54
1005.39	3855.83
1005.55	3882.38
1005.71	3857.55
1005.88	3857.23
1006.04	3883.52
1006.20	3855.26
1006.37	3838.63
1006.53	3859.77
1006.69	3825.11
1006.85	3853.13
1007.02	3831.67
1007.18	3822.33
1007.34	3813.48
1007.51	3848.71
1007.67	3804.06
1007.83	3819.30
1007.99	3805.37
1008.16	3817.33
1008.32	3798.00
1008.48	3821.18
1008.64	3786.69
1008.81	3802.26
1008.97	3798.08
1009.13	3796.11
1009.29	3811.19
1009.46	3811.60
1009.62	3803.16
1009.78	3806.76
1009.95	3821.26
1010.11	3817.41
1010.27	3782.19
1010.43	3782.76
1010.59	3794.39
1010.76	3800.54
1010.92	3785.14
1011.08	3787.92
1011.24	3783.25
1011.41	3826.67
1011.57	3779.98
1011.73	3785.47
1011.89	3758.10
1012.06	3782.76
1012.22	3756.14
1012.38	3768.43
1012.54	3767.28
1012.70	3767.53
1012.87	3753.27
1013.03	3776.54
1013.19	3746.31
1013.35	3767.93
1013.51	3712.89
1013.68	3743.03
1013.84	3721.24
1014.00	3739.43
1014.16	3727.71
1014.32	3731.73
1014.49	3729.35
1014.65	3757.69
1014.81	3726.89
1014.97	3734.59
1015.13	3715.59
1015.30	3721.65
1015.46	3725.09
1015.62	3738.44
1015.78	3729.92
1015.94	3705.51
1016.10	3696.42
1016.27	3705.59
1016.43	3714.93
1016.59	3711.33
1016.75	3706.91
1016.91	3718.87
1017.07	3690.85
1017.24	3727.47
1017.40	3683.56
1017.56	3710.59
1017.72	3684.62
1017.88	3702.07
1018.04	3700.19
1018.21	3693.72
1018.37	3675.45
1018.53	3679.63
1018.69	3677.33
1018.85	3660.29
1019.01	3660.95
1019.17	3690.36
1019.34	3654.31
1019.50	3663.00
1019.66	3645.63
1019.82	3650.55
1019.98	3650.71
1020.14	3671.43
1020.30	3653.08
1020.46	3667.01
1020.63	3628.02
1020.79	3629.90
1020.95	3643.66
1021.11	3655.62
1021.27	3613.35
1021.43	3638.18
1021.59	3646.12
1021.75	3631.87
1021.91	3595.33
1022.07	3612.21
1022.24	3621.96
1022.40	3611.88
1022.56	3609.18
1022.72	3647.10
1022.88	3609.09
1023.04	3617.45
1023.20	3616.88
1023.36	3627.85
1023.52	3631.62
1023.68	3630.39
1023.84	3595.50
1024.01	3604.83
1024.17	3610.16
1024.33	3600.41
1024.49	3598.61
1024.65	3597.30
1024.81	3579.36
1024.97	3594.51
1025.13	3604.75
1025.29	3602.95
1025.45	3581.24
1025.61	3606.23
1025.77	3590.58
1025.93	3581.82
1026.09	3574.69
1026.25	3612.21
1026.41	3575.75
1026.57	3585.50
1026.73	3589.43
1026.90	3586.16
1027.06	3588.12
1027.22	3581.24
1027.38	3584.52
1027.54	3586.98
1027.70	3561.42
1027.86	3551.51
1028.02	3552.16
1028.18	3567.32
1028.34	3569.45
1028.50	3565.76
1028.66	3548.15
1028.82	3576.41
1028.98	3526.11
1029.14	3528.57
1029.30	3548.80
1029.46	3554.04
1029.62	3532.42
1029.78	3518.25
1029.94	3539.71
1030.10	3540.53
1030.26	3527.75
1030.42	3543.72
1030.58	3513.66
1030.74	3528.40
1030.90	3518.25
1031.06	3514.81
1031.22	3512.84
1031.38	3515.05
1031.54	3499.81
1031.70	3508.25
1031.86	3496.05
1032.02	3518.41
1032.18	3490.39
1032.34	3512.27
1032.50	3497.77
1032.66	3523.57
1032.82	3486.71
1032.98	3498.18
1033.14	3510.79
1033.30	3504.73
1033.45	3476.88
1033.61	3507.84
1033.77	3487.45
1033.93	3515.54
1034.09	3493.83
1034.25	3497.77
1034.41	3480.15
1034.57	3507.92
1034.73	3478.11
1034.89	3493.10
1035.05	3494.74
1035.21	3485.97
1035.37	3470.90
1035.53	3481.46
1035.69	3456.48
1035.85	3516.77
1036.01	3461.39
1036.16	3484.41
1036.32	3471.06
1036.48	3460.00
1036.64	3449.60
1036.80	3466.80
1036.96	3454.02
1037.12	3460.90
1037.28	3460.17
1037.44	3460.90
1037.60	3457.54
1037.76	3450.42
1037.91	3437.15
1038.07	3453.04
1038.23	3447.14
1038.39	3453.69
1038.55	3441.00
1038.71	3454.84
1038.87	3434.61
1039.03	3452.71
1039.19	3435.18
1039.35	3445.01
1039.50	3442.47
1039.66	3455.41
1039.82	3418.96
1039.98	3457.05
1040.14	3425.43
1040.30	3450.42
1040.46	3426.09
1040.62	3431.25
1040.77	3425.43
1040.93	3449.60
1041.09	3423.96
1041.25	3428.05
1041.41	3424.86
1041.57	3420.19
1041.73	3420.19
1041.88	3420.19

