SpectraSuite Data File
++++++++++++++++++++++++++++++++++++
Date: Tue Sep 20 12:15:04 EDT 2022
User: Laboratoire
Dark Spectrum Present: No
Reference Spectrum Present: No
Number of Sampled Component Spectra: 1
Spectrometers: FLMT00174
Integration Time (usec): 15000 (FLMT00174)
Spectra Averaged: 25 (FLMT00174)
Boxcar Smoothing: 0 (FLMT00174)
Correct for Electrical Dark: No (FLMT00174)
Strobe/Lamp Enabled: No (FLMT00174)
Correct for Detector Non-linearity: No (FLMT00174)
Correct for Stray Light: No (FLMT00174)
Number of Pixels in Processed Spectrum: 3648
>>>>>Begin Processed Spectral Data<<<<<
345.74	3172.80
345.96	3172.80
346.18	3172.80
346.39	3172.63
346.61	3209.99
346.83	3231.29
347.05	3224.08
347.27	3218.34
347.49	3228.75
347.71	3229.56
347.93	3238.66
348.15	3246.36
348.36	3243.49
348.58	3236.86
348.80	3217.11
349.02	3222.52
349.24	3235.05
349.46	3298.21
349.68	3309.11
349.90	3311.65
350.11	3297.48
350.33	3301.24
350.55	3287.07
350.77	3315.01
350.99	3298.29
351.21	3324.92
351.43	3301.90
351.65	3303.62
351.86	3277.24
352.08	3318.53
352.30	3273.39
352.52	3307.31
352.74	3301.00
352.96	3296.82
353.18	3292.31
353.39	3305.75
353.61	3302.55
353.83	3330.98
354.05	3341.30
354.27	3303.78
354.49	3318.77
354.70	3314.35
354.92	3311.24
355.14	3294.28
355.36	3307.39
355.58	3306.08
355.80	3298.70
356.02	3326.07
356.23	3302.14
356.45	3312.22
356.67	3328.19
356.89	3325.82
357.11	3293.38
357.33	3312.22
357.54	3299.52
357.76	3312.30
357.98	3298.46
358.20	3313.78
358.42	3290.51
358.63	3304.11
358.85	3306.40
359.07	3312.55
359.29	3290.76
359.51	3296.98
359.73	3294.69
359.94	3297.97
360.16	3300.10
360.38	3328.60
360.60	3306.08
360.82	3318.53
361.03	3328.19
361.25	3308.12
361.47	3317.71
361.69	3320.41
361.91	3320.82
362.12	3298.13
362.34	3314.19
362.56	3322.54
362.78	3313.29
363.00	3324.75
363.21	3301.16
363.43	3318.12
363.65	3302.14
363.87	3332.70
364.09	3301.90
364.30	3303.05
364.52	3290.51
364.74	3334.75
364.96	3310.99
365.17	3327.54
365.39	3319.92
365.61	3286.01
365.83	3313.37
366.05	3305.99
366.26	3301.49
366.48	3315.83
366.70	3318.61
366.92	3328.77
367.13	3299.69
367.35	3304.52
367.57	3298.46
367.79	3329.10
368.01	3310.25
368.22	3326.15
368.44	3311.16
368.66	3315.33
368.88	3309.35
369.09	3316.15
369.31	3316.48
369.53	3305.34
369.75	3299.93
369.96	3332.45
370.18	3321.23
370.40	3343.35
370.62	3315.66
370.83	3324.26
371.05	3323.36
371.27	3342.61
371.49	3293.95
371.70	3315.50
371.92	3325.66
372.14	3346.22
372.36	3301.00
372.57	3327.29
372.79	3320.99
373.01	3334.42
373.22	3301.74
373.44	3333.44
373.66	3302.23
373.88	3340.56
374.09	3305.75
374.31	3308.45
374.53	3319.18
374.75	3356.46
374.96	3335.08
375.18	3345.89
375.40	3321.07
375.61	3327.13
375.83	3314.27
376.05	3338.11
376.27	3336.55
376.48	3317.05
376.70	3332.05
376.92	3323.94
377.13	3315.66
377.35	3342.78
377.57	3344.09
377.79	3317.71
378.00	3321.48
378.22	3339.50
378.44	3327.29
378.65	3354.74
378.87	3343.60
379.09	3348.67
379.30	3346.63
379.52	3333.85
379.74	3344.17
379.96	3326.72
380.17	3335.24
380.39	3326.80
380.61	3325.25
380.82	3331.31
381.04	3326.64
381.26	3347.53
381.47	3356.21
381.69	3370.30
381.91	3347.12
382.12	3358.26
382.34	3361.62
382.56	3364.81
382.77	3362.27
382.99	3363.09
383.21	3336.30
383.42	3364.89
383.64	3364.24
383.86	3363.83
384.07	3356.13
384.29	3352.03
384.51	3338.27
384.72	3366.29
384.94	3342.53
385.16	3356.21
385.37	3350.31
385.59	3367.68
385.81	3362.44
386.02	3375.54
386.24	3363.42
386.46	3377.10
386.67	3382.51
386.89	3393.65
387.11	3385.70
387.32	3394.71
387.54	3382.83
387.76	3408.64
387.97	3411.75
388.19	3419.78
388.40	3397.83
388.62	3403.72
388.84	3408.88
389.05	3412.16
389.27	3405.69
389.49	3418.96
389.70	3402.41
389.92	3428.55
390.14	3432.81
390.35	3416.26
390.57	3434.85
390.78	3433.87
391.00	3425.35
391.22	3435.59
391.43	3422.65
391.65	3448.86
391.86	3455.58
392.08	3447.55
392.30	3458.28
392.51	3449.43
392.73	3478.43
392.95	3460.99
393.16	3470.73
393.38	3471.88
393.59	3451.97
393.81	3468.69
394.03	3461.07
394.24	3477.21
394.46	3477.86
394.67	3459.51
394.89	3451.32
395.11	3470.98
395.32	3486.38
395.54	3475.57
395.75	3497.19
395.97	3458.36
396.19	3478.84
396.40	3493.59
396.62	3469.26
396.83	3472.04
397.05	3475.08
397.26	3493.26
397.48	3472.62
397.70	3482.94
397.91	3483.35
398.13	3478.11
398.34	3495.47
398.56	3506.37
398.78	3502.19
398.99	3521.52
399.21	3478.43
399.42	3510.96
399.64	3491.21
399.85	3499.08
400.07	3502.35
400.29	3523.98
400.50	3516.61
400.72	3519.56
400.93	3498.09
401.15	3528.57
401.36	3521.44
401.58	3529.31
401.79	3516.77
402.01	3547.82
402.23	3539.79
402.44	3571.82
402.66	3557.98
402.87	3572.56
403.09	3563.88
403.30	3571.58
403.52	3560.68
403.73	3557.73
403.95	3576.33
404.16	3573.21
404.38	3589.84
404.60	3584.44
404.81	3609.59
405.03	3629.33
405.24	3627.20
405.46	3624.74
405.67	3640.63
405.89	3655.38
406.10	3637.27
406.32	3669.71
406.53	3682.25
406.75	3713.87
406.96	3698.96
407.18	3688.31
407.39	3707.31
407.61	3747.78
407.82	3730.17
408.04	3763.02
408.25	3749.99
408.47	3772.77
408.68	3774.49
408.90	3773.91
409.12	3817.25
409.33	3835.85
409.55	3808.08
409.76	3843.79
409.98	3833.63
410.19	3845.02
410.41	3854.93
410.62	3874.43
410.84	3864.19
411.05	3907.61
411.27	3897.86
411.48	3925.79
411.70	3925.14
411.91	3930.63
412.12	3943.73
412.34	3938.98
412.55	3945.45
412.77	3941.77
412.98	3968.72
413.20	3951.60
413.41	3978.63
413.63	3970.27
413.84	3963.97
414.06	3993.13
414.27	3982.32
414.49	4010.41
414.70	4001.32
414.92	4008.53
415.13	3996.98
415.35	4017.30
415.56	3999.93
415.78	4003.78
415.99	4028.76
416.21	4008.45
416.42	4017.79
416.63	4035.48
416.85	4026.88
417.06	4013.28
417.28	4013.61
417.49	4045.64
417.71	4015.74
417.92	3995.75
418.14	4031.22
418.35	4047.03
418.57	4036.55
418.78	4029.99
418.99	4022.95
419.21	4047.03
419.42	4015.82
419.64	4020.57
419.85	4050.06
420.07	4061.94
420.28	4043.59
420.50	4044.90
420.71	4047.77
420.92	4043.67
421.14	4066.36
421.35	4044.16
421.57	4028.68
421.78	4056.86
422.00	4068.49
422.21	4069.15
422.42	4055.14
422.64	4060.22
422.85	4090.53
423.07	4098.23
423.28	4078.41
423.50	4090.94
423.71	4135.59
423.92	4139.85
424.14	4128.79
424.35	4129.11
424.57	4165.49
424.78	4177.45
424.99	4163.85
425.21	4170.40
425.42	4206.61
425.64	4200.88
425.85	4211.93
426.06	4216.36
426.28	4228.73
426.49	4252.89
426.71	4245.60
426.92	4268.29
427.13	4302.29
427.35	4326.54
427.56	4341.12
427.78	4333.83
427.99	4370.53
428.20	4397.15
428.42	4382.00
428.63	4409.19
428.84	4395.10
429.06	4429.59
429.27	4464.33
429.49	4501.60
429.70	4505.04
429.91	4521.92
430.13	4547.97
430.34	4569.10
430.56	4601.62
430.77	4638.32
430.98	4626.77
431.20	4674.78
431.41	4712.21
431.62	4739.25
431.84	4722.21
432.05	4786.84
432.26	4798.88
432.48	4786.59
432.69	4876.05
432.91	4879.24
433.12	4914.47
433.33	4935.28
433.55	5017.44
433.76	5018.26
433.97	5006.79
434.19	5045.54
434.40	5111.16
434.61	5138.03
434.83	5180.05
435.04	5174.15
435.25	5233.71
435.47	5241.41
435.68	5224.61
435.89	5350.20
436.11	5332.09
436.32	5349.87
436.53	5401.97
436.75	5417.21
436.96	5425.48
437.17	5434.98
437.39	5447.51
437.60	5522.55
437.81	5551.55
438.03	5541.07
438.24	5564.00
438.45	5666.73
438.67	5623.80
438.88	5717.03
439.09	5734.31
439.31	5691.88
439.52	5744.14
439.73	5747.17
439.94	5711.38
440.16	5772.24
440.37	5762.16
440.58	5809.02
440.80	5833.84
441.01	5815.99
441.22	5928.62
441.44	5893.64
441.65	5852.69
441.86	5851.37
442.08	5899.46
442.29	5891.02
442.50	5940.34
442.71	5869.97
442.93	5896.35
443.14	5869.64
443.35	5942.71
443.57	5887.01
443.78	5920.84
443.99	5944.93
444.20	5854.65
444.42	5934.93
444.63	5911.91
444.84	5944.76
445.06	5960.98
445.27	5894.71
445.48	5888.98
445.69	5926.08
445.91	5907.65
446.12	5877.34
446.33	5917.32
446.54	5966.55
446.76	5892.66
446.97	5949.10
447.18	5898.64
447.39	5947.79
447.61	5883.49
447.82	5937.55
448.03	5894.22
448.25	5917.81
448.46	5967.37
448.67	6002.43
448.88	5913.14
449.10	5976.96
449.31	5986.38
449.52	5936.00
449.73	5977.28
449.95	6045.60
450.16	5960.16
450.37	6050.52
450.58	6130.47
450.79	5993.18
451.01	6011.44
451.22	6019.96
451.43	6047.49
451.64	6087.55
451.86	6079.76
452.07	6096.31
452.28	6092.87
452.49	6189.86
452.71	6081.81
452.92	6123.02
453.13	6167.17
453.34	6177.90
453.55	6232.46
453.77	6255.07
453.98	6281.04
454.19	6227.22
454.40	6283.17
454.62	6319.46
454.83	6241.96
455.04	6389.01
455.25	6312.50
455.46	6471.17
455.68	6407.44
455.89	6408.09
456.10	6486.90
456.31	6490.50
456.52	6488.78
456.74	6525.98
456.95	6668.27
457.16	6593.80
457.37	6688.91
457.58	6706.20
457.80	6707.75
458.01	6728.07
458.22	6952.77
458.43	6852.42
458.64	6900.59
458.86	6833.50
459.07	6948.27
459.28	6954.33
459.49	7057.46
459.70	7219.99
459.91	7140.28
460.13	7188.86
460.34	7263.82
460.55	7236.78
460.76	7395.95
460.97	7417.09
461.19	7434.21
461.40	7663.58
461.61	7568.64
461.82	7642.69
462.03	7714.70
462.24	7727.15
462.46	7767.78
462.67	7843.88
462.88	7990.85
463.09	7996.74
463.30	8128.63
463.51	8100.78
463.72	8274.61
463.94	8352.93
464.15	8393.72
464.36	8348.75
464.57	8610.15
464.78	8643.90
464.99	8732.62
465.20	8696.99
465.42	8930.95
465.63	8940.69
465.84	8977.31
466.05	9109.12
466.26	9219.14
466.47	9334.72
466.68	9337.10
466.90	9517.07
467.11	9539.19
467.32	9654.37
467.53	9846.39
467.74	9742.84
467.95	9891.20
468.16	10090.42
468.37	10155.96
468.59	10271.63
468.80	10456.11
469.01	10340.36
469.22	10557.85
469.43	10759.86
469.64	10700.55
469.85	10898.31
470.06	11003.16
470.28	11133.74
470.49	11001.20
470.70	11209.68
470.91	11481.98
471.12	11352.55
471.33	11680.71
471.54	11583.39
471.75	11681.45
471.96	12002.65
472.17	11925.90
472.39	12255.70
472.60	11999.70
472.81	12332.79
473.02	12265.61
473.23	12561.58
473.44	12589.60
473.65	12565.11
473.86	12651.86
474.07	12736.56
474.28	12851.00
474.49	13156.48
474.71	13041.14
474.92	13266.09
475.13	13154.35
475.34	13196.37
475.55	13255.19
475.76	13334.82
475.97	13637.18
476.18	13560.99
476.39	13739.33
476.60	13825.43
476.81	13768.99
477.02	13903.41
477.23	13926.52
477.44	13843.70
477.65	14064.22
477.87	14188.41
478.08	14209.54
478.29	14170.96
478.50	14437.69
478.71	14247.64
478.92	14374.45
479.13	14429.99
479.34	14405.90
479.55	14508.88
479.76	14475.70
479.97	14523.29
480.18	14791.17
480.39	14557.04
480.60	14803.95
480.81	14783.47
481.02	14776.83
481.23	14793.38
481.44	14973.85
481.65	15061.66
481.86	15169.06
482.07	14815.99
482.28	15405.39
482.49	15178.97
482.71	15139.57
482.92	15288.58
483.13	15395.73
483.34	15207.81
483.55	15315.53
483.76	15248.36
483.97	15474.12
484.18	15449.14
484.39	15509.02
484.60	15408.83
484.81	15629.11
485.02	15532.04
485.23	15736.26
485.44	15714.15
485.65	15824.49
485.86	15696.21
486.07	15944.50
486.28	15814.50
486.49	16011.35
486.70	16036.17
486.91	16153.72
487.12	16042.56
487.33	15958.76
487.54	16310.19
487.75	16276.93
487.96	16361.88
488.17	16260.79
488.38	16366.96
488.59	16409.39
488.80	16486.56
489.01	16491.56
489.22	16761.81
489.43	16642.37
489.64	16538.66
489.85	16900.08
490.06	16678.17
490.26	16917.70
490.47	16816.85
490.68	17082.19
490.89	17238.16
491.10	17055.57
491.31	17309.02
491.52	17434.85
491.73	17348.67
491.94	17381.93
492.15	17536.18
492.36	17664.71
492.57	17640.47
492.78	17713.70
492.99	17797.09
493.20	17987.56
493.41	18051.12
493.62	18056.94
493.83	18132.06
494.04	18277.06
494.25	18456.87
494.46	18466.94
494.67	18386.91
494.88	18663.30
495.08	18715.98
495.29	18830.66
495.50	19072.65
495.71	18979.10
495.92	19223.46
496.13	19305.38
496.34	19272.53
496.55	19397.54
496.76	19697.28
496.97	19501.09
497.18	19840.72
497.39	19889.95
497.60	20287.01
497.81	20018.73
498.02	20356.56
498.22	20238.35
498.43	20679.24
498.64	20776.23
498.85	20793.11
499.06	20913.20
499.27	21294.53
499.48	20936.79
499.69	21350.81
499.90	21498.02
500.11	21738.53
500.32	22091.03
500.52	21954.63
500.73	22399.78
500.94	22420.02
501.15	22564.44
501.36	22724.75
501.57	22726.06
501.78	23005.24
501.99	23366.50
502.20	23380.27
502.41	23519.28
502.61	23647.81
502.82	24035.62
503.03	23949.03
503.24	24406.30
503.45	24351.66
503.66	24791.40
503.87	24793.12
504.08	25226.06
504.28	25172.32
504.49	25484.60
504.70	25634.75
504.91	25918.44
505.12	25866.66
505.33	26368.66
505.54	26481.71
505.75	26607.21
505.95	26987.72
506.16	27092.82
506.37	27073.41
506.58	27711.15
506.79	27407.06
507.00	28043.82
507.21	27941.67
507.41	28185.29
507.62	28475.94
507.83	28980.15
508.04	28712.69
508.25	29329.78
508.46	29206.00
508.67	29760.26
508.87	29627.39
509.08	30125.37
509.29	30101.29
509.50	30442.65
509.71	30637.45
509.92	30859.86
510.12	30776.55
510.33	31130.27
510.54	31160.17
510.75	31453.85
510.96	31828.30
511.17	32179.90
511.37	32231.42
511.58	32604.65
511.79	32398.37
512.00	32518.14
512.21	33068.88
512.42	33095.91
512.62	33307.02
512.83	33577.92
513.04	33458.16
513.25	33967.61
513.46	33310.38
513.66	34368.44
513.87	34080.08
514.08	34574.79
514.29	34470.67
514.50	34589.54
514.71	34938.18
514.91	34793.68
515.12	34870.03
515.33	35190.17
515.54	35130.12
515.75	35423.80
515.95	35265.04
516.16	35366.70
516.37	35778.75
516.58	35972.33
516.78	35720.92
516.99	35978.80
517.20	35969.87
517.41	36030.98
517.62	36220.70
517.82	36049.82
518.03	36495.13
518.24	36756.29
518.45	36127.89
518.66	36470.96
518.86	36252.65
519.07	36624.32
519.28	35933.33
519.49	36597.28
519.69	36645.21
519.90	36635.70
520.11	36836.32
520.32	36573.61
520.52	36837.22
520.73	36258.06
520.94	36720.00
521.15	36575.41
521.36	36179.74
521.56	36750.39
521.77	36159.43
521.98	36688.87
522.19	36151.97
522.39	36420.75
522.60	36141.41
522.81	36182.69
523.02	36007.96
523.22	36262.56
523.43	36314.42
523.64	35992.15
523.84	36063.17
524.05	36232.09
524.26	36029.26
524.47	35676.11
524.67	35777.85
524.88	35859.28
525.09	35966.10
525.30	35567.89
525.50	35474.67
525.71	35479.17
525.92	35450.01
526.13	35518.41
526.33	35238.66
526.54	34951.21
526.75	35039.03
526.95	35262.91
527.16	34548.99
527.37	34923.36
527.58	34963.99
527.78	34797.20
527.99	34920.16
528.20	34986.92
528.40	34520.40
528.61	34258.34
528.82	34498.03
529.03	34211.48
529.23	33976.05
529.44	34220.17
529.65	34168.15
529.85	34120.39
530.06	33937.55
530.27	33992.19
530.47	33546.47
530.68	34167.00
530.89	33413.68
531.09	33867.10
531.30	33567.03
531.51	33160.55
531.72	33526.23
531.92	33376.81
532.13	33585.79
532.34	33320.12
532.54	33316.60
532.75	33286.05
532.96	33123.93
533.16	33287.27
533.37	33323.73
533.58	33008.59
533.78	33251.48
533.99	33184.47
534.20	32679.93
534.40	32923.15
534.61	32992.78
534.82	32939.86
535.02	32882.84
535.23	32890.62
535.44	32945.92
535.64	32728.02
535.85	32746.36
536.06	32670.84
536.26	32610.95
536.47	32492.58
536.68	32851.30
536.88	32263.21
537.09	32706.96
537.29	32298.84
537.50	32853.60
537.71	32463.25
537.91	32603.01
538.12	32663.14
538.33	32406.81
538.53	32590.39
538.74	32666.90
538.95	32683.62
539.15	32416.72
539.36	32705.82
539.56	32891.52
539.77	32479.39
539.98	32534.03
540.18	32684.60
540.39	32458.26
540.60	32668.05
540.80	32838.85
541.01	32790.93
541.21	32724.98
541.42	32914.05
541.63	32736.78
541.83	33019.81
542.04	32951.90
542.25	32963.04
542.45	33018.25
542.66	33026.12
542.86	33124.91
543.07	32520.11
543.28	33383.69
543.48	33194.87
543.69	33486.91
543.89	33219.94
544.10	33773.46
544.31	33668.69
544.51	33529.43
544.72	33720.05
544.92	33594.72
545.13	33897.32
545.33	33821.38
545.54	33679.67
545.75	33989.15
545.95	33831.62
546.16	33957.04
546.36	34462.15
546.57	33890.93
546.78	33603.73
546.98	34084.18
547.19	33717.27
547.39	34426.85
547.60	34631.56
547.80	35167.15
548.01	35225.55
548.22	34954.08
548.42	35039.84
548.63	35320.83
548.83	35233.01
549.04	35551.75
549.24	35304.85
549.45	35649.32
549.65	35976.18
549.86	35471.23
550.07	35923.42
550.27	36193.75
550.48	36372.17
550.68	36406.17
550.89	36534.62
551.09	36736.30
551.30	36746.05
551.50	36989.59
551.71	36825.10
551.91	36907.02
552.12	37128.04
552.33	37457.92
552.53	37180.14
552.74	37811.32
552.94	38039.46
553.15	37944.36
553.35	38176.51
553.56	38000.55
553.76	38625.76
553.97	38278.50
554.17	38614.61
554.38	39335.34
554.58	38850.13
554.79	39412.91
554.99	39038.54
555.20	39238.84
555.40	39788.84
555.61	39581.42
555.81	39556.68
556.02	40464.59
556.22	40402.98
556.43	40453.69
556.63	40716.57
556.84	40874.10
557.04	41518.72
557.25	40975.84
557.45	41579.58
557.66	41592.03
557.86	41483.00
558.07	42094.52
558.27	41902.92
558.48	42101.57
558.68	42306.12
558.89	42428.67
559.09	42641.00
559.30	42536.39
559.50	42973.68
559.71	42761.34
559.91	43543.50
560.12	43416.86
560.32	43570.29
560.53	43946.38
560.73	43828.09
560.94	44319.85
561.14	44025.10
561.35	44603.04
561.55	44639.57
561.76	44964.46
561.96	44613.93
562.17	45202.03
562.37	45553.13
562.57	45294.52
562.78	45451.88
562.98	45880.81
563.19	46038.26
563.39	46229.54
563.60	46353.32
563.80	45964.86
564.01	46610.87
564.21	46432.78
564.42	46335.37
564.62	46725.31
564.82	47317.01
565.03	47105.08
565.23	47306.28
565.44	47607.57
565.64	47591.44
565.85	47985.55
566.05	47802.95
566.25	48187.80
566.46	47919.77
566.66	48288.65
566.87	48317.81
567.07	48349.76
567.28	48510.97
567.48	48814.73
567.68	48209.92
567.89	49287.81
568.09	48820.63
568.30	48834.88
568.50	49307.31
568.71	49198.60
568.91	49498.67
569.11	49175.42
569.32	49324.92
569.52	49491.21
569.73	49002.49
569.93	49624.66
570.13	49402.33
570.34	49227.27
570.54	49719.19
570.75	49443.37
570.95	49473.93
571.15	49389.39
571.36	50005.74
571.56	49565.68
571.77	49486.30
571.97	49102.59
572.17	49946.27
572.38	49718.21
572.58	50044.33
572.79	49815.04
572.99	49777.44
573.19	49623.59
573.40	49324.02
573.60	49465.16
573.81	49349.49
574.01	49652.67
574.21	49464.10
574.42	49406.26
574.62	49259.63
574.82	49697.65
575.03	49315.42
575.23	49887.78
575.43	49322.71
575.64	49315.91
575.84	49765.89
576.05	49087.68
576.25	49172.14
576.45	48952.76
576.66	49351.95
576.86	48773.52
577.06	49048.69
577.27	48868.79
577.47	48764.18
577.67	48746.74
577.88	48167.08
578.08	48622.87
578.28	48731.33
578.49	48360.24
578.69	48498.77
578.89	48267.43
579.10	48184.44
579.30	48638.85
579.50	48021.02
579.71	47548.43
579.91	47907.15
580.11	47503.86
580.32	47366.24
580.52	47279.16
580.72	47653.53
580.93	46906.51
581.13	46921.26
581.33	47170.13
581.54	46643.96
581.74	46702.21
581.94	46687.13
582.15	46790.19
582.35	46319.15
582.55	46235.35
582.76	45809.13
582.96	46270.00
583.16	45671.42
583.37	45947.82
583.57	45505.70
583.77	45877.78
583.97	44695.53
584.18	45537.16
584.38	45172.46
584.58	44850.76
584.79	45001.57
584.99	44616.06
585.19	44412.82
585.40	44272.82
585.60	44492.61
585.80	44022.07
586.00	44279.46
586.21	44131.76
586.41	43896.82
586.61	44028.46
586.82	43557.02
587.02	43287.59
587.22	43362.54
587.42	42771.42
587.63	43221.48
587.83	42547.53
588.03	42804.84
588.23	42374.69
588.44	42541.80
588.64	42143.76
588.84	42196.35
589.05	42193.15
589.25	42125.90
589.45	41877.36
589.65	41798.22
589.86	41966.32
590.06	41779.79
590.26	41525.11
590.46	41644.63
590.67	40934.72
590.87	41384.12
591.07	41296.22
591.27	40806.19
591.48	41047.44
591.68	40444.35
591.88	41132.06
592.08	40361.29
592.29	40627.69
592.49	40385.78
592.69	40542.16
592.89	40048.77
593.10	40119.22
593.30	39902.54
593.50	40330.73
593.70	39396.20
593.90	40008.63
594.11	39731.82
594.31	39718.31
594.51	39882.39
594.71	39659.82
594.92	39654.16
595.12	39249.57
595.32	39209.51
595.52	39314.20
595.72	38690.80
595.93	39366.22
596.13	39074.83
596.33	38722.17
596.53	38979.89
596.73	38780.34
596.94	38664.18
597.14	38761.82
597.34	38514.18
597.54	38659.75
597.74	38329.46
597.95	38378.28
598.15	38296.20
598.35	38439.80
598.55	38333.96
598.75	38113.35
598.96	38410.47
599.16	38018.74
599.36	38041.67
599.56	37900.45
599.76	37708.43
599.97	38107.78
600.17	37881.61
600.37	38062.65
600.57	37531.08
600.77	38147.68
600.97	37775.36
601.18	38222.55
601.38	37802.06
601.58	37961.97
601.78	37583.09
601.98	37381.82
602.18	37564.01
602.39	37792.64
602.59	37550.57
602.79	37317.02
602.99	37477.91
603.19	37497.49
603.39	37321.69
603.60	37368.88
603.80	37409.26
604.00	37319.72
604.20	37307.93
604.40	37443.50
604.60	37130.98
604.80	37099.20
605.01	37265.00
605.21	37128.85
605.41	36983.45
605.61	36775.70
605.81	37093.71
606.01	37454.24
606.21	37053.65
606.42	37290.23
606.62	37059.55
606.82	37411.15
607.02	37011.06
607.22	37163.83
607.42	37385.42
607.62	37011.06
607.82	37036.37
608.03	37190.38
608.23	37164.82
608.43	37077.08
608.63	37392.96
608.83	37348.23
609.03	37208.15
609.23	37315.96
609.43	37379.77
609.63	37227.81
609.84	37121.40
610.04	37605.87
610.24	37570.15
610.44	37552.62
610.64	37227.40
610.84	37549.67
611.04	37798.79
611.24	37754.88
611.44	37258.12
611.64	37682.54
611.85	37688.52
612.05	37595.79
612.25	37714.57
612.45	37561.30
612.65	37831.31
612.85	37913.72
613.05	37636.67
613.25	38018.57
613.45	37791.74
613.65	37888.90
613.85	37678.12
614.05	38106.96
614.25	38212.89
614.46	38106.96
614.66	37906.51
614.86	37887.42
615.06	38116.79
615.26	38510.17
615.46	37984.66
615.66	38555.31
615.86	38567.27
616.06	38261.87
616.26	38466.26
616.46	38997.58
616.66	38618.71
616.86	39002.42
617.06	38751.42
617.26	39216.06
617.46	38909.93
617.66	38840.96
617.86	38747.49
618.07	39006.84
618.27	38946.80
618.47	39075.08
618.67	39201.32
618.87	39317.64
619.07	39198.53
619.27	39215.08
619.47	39275.29
619.67	39667.11
619.87	39371.38
620.07	39891.40
620.27	39936.78
620.47	39732.07
620.67	40136.34
620.87	40021.16
621.07	40156.08
621.27	40127.33
621.47	39863.55
621.67	40355.14
621.87	40136.50
622.07	40709.28
622.27	40679.05
622.47	40496.94
622.67	40733.61
622.87	40666.84
623.07	41245.60
623.27	41491.93
623.47	40887.70
623.67	41356.84
623.87	41686.24
624.07	41650.44
624.27	41201.20
624.47	41505.20
624.67	41538.05
624.87	41645.77
625.07	41395.84
625.27	42011.21
625.47	41636.68
625.67	41816.08
625.87	42111.81
626.07	42079.37
626.27	42339.87
626.47	42271.71
626.67	42364.61
626.87	42233.54
627.07	42692.37
627.27	42697.12
627.47	42962.04
627.67	42859.48
627.87	42952.95
628.07	43256.70
628.27	43107.12
628.47	42921.74
628.67	43506.72
628.86	43443.32
629.06	43211.98
629.26	43284.47
629.46	43667.69
629.66	43596.50
629.86	43337.72
630.06	43955.47
630.26	43846.85
630.46	44228.92
630.66	43632.71
630.86	43964.65
631.06	44053.12
631.26	44023.30
631.46	44466.56
631.66	44562.57
631.86	44389.23
632.06	44749.76
632.26	44458.04
632.45	44389.56
632.65	44501.46
632.85	44711.50
633.05	44694.54
633.25	44957.34
633.45	44863.54
633.65	45017.88
633.85	45713.53
634.05	44893.11
634.25	45367.91
634.45	45399.62
634.65	45721.31
634.84	45356.86
635.04	45633.17
635.24	45443.28
635.44	45942.00
635.64	45864.34
635.84	46013.68
636.04	45838.54
636.24	45892.93
636.44	45973.87
636.64	45466.22
636.84	46391.41
637.03	45743.68
637.23	46110.26
637.43	46097.89
637.63	46032.19
637.83	46313.42
638.03	46408.20
638.23	46031.37
638.43	46566.47
638.62	46811.73
638.82	45743.76
639.02	46659.28
639.22	46408.69
639.42	46622.17
639.62	46424.67
639.82	46668.87
640.02	46694.18
640.21	46747.18
640.41	46311.86
640.61	46715.72
640.81	46509.86
641.01	46432.78
641.21	46432.78
641.41	46971.39
641.61	46411.89
641.80	46473.74
642.00	46710.40
642.20	46837.70
642.40	46212.01
642.60	46663.05
642.80	46778.31
642.99	46453.83
643.19	46845.81
643.39	46336.11
643.59	46665.67
643.79	46547.13
643.99	46708.60
644.19	46614.72
644.38	46120.50
644.58	46335.46
644.78	46182.35
644.98	46052.84
645.18	46262.39
645.38	46505.27
645.57	45957.24
645.77	45972.47
645.97	45693.71
646.17	45936.76
646.37	45865.82
646.56	45705.26
646.76	45747.12
646.96	45902.02
647.16	45839.68
647.36	45955.44
647.55	45899.32
647.75	45944.79
647.95	45713.94
648.15	45830.10
648.35	45703.54
648.55	45724.59
648.74	45489.65
648.94	45407.97
649.14	45696.57
649.34	45353.99
649.54	45385.28
649.73	45441.31
649.93	45075.71
650.13	44957.42
650.33	44772.94
650.52	44962.91
650.72	45038.27
650.92	44585.51
651.12	44351.55
651.32	44566.09
651.51	44628.27
651.71	44522.10
651.91	44391.52
652.11	44254.39
652.30	44261.19
652.50	44540.45
652.70	44358.92
652.90	43976.28
653.10	44182.39
653.29	43743.47
653.49	44020.19
653.69	43476.57
653.89	43523.84
654.08	43344.36
654.28	43676.37
654.48	43290.70
654.68	43382.12
654.87	42919.61
655.07	42743.65
655.27	42933.78
655.47	42513.95
655.66	42407.04
655.86	42138.02
656.06	42529.76
656.26	41754.72
656.45	41964.85
656.65	41893.00
656.85	41651.75
657.04	41244.45
657.24	41267.39
657.44	41062.84
657.64	41333.17
657.83	40475.56
658.03	40908.09
658.23	40813.97
658.43	40736.39
658.62	40835.43
658.82	40439.19
659.02	40377.51
659.21	40408.06
659.41	40176.07
659.61	40472.04
659.81	40058.76
660.00	39690.21
660.20	39770.41
660.40	39519.98
660.59	39498.85
660.79	39090.97
660.99	39358.11
661.19	39258.17
661.38	39204.84
661.58	38572.02
661.78	38798.28
661.97	38671.79
662.17	39170.11
662.37	38604.29
662.56	38526.55
662.76	38392.53
662.96	38367.71
663.15	38237.79
663.35	38076.24
663.55	37846.54
663.74	37426.38
663.94	37709.00
664.14	37272.54
664.33	37463.82
664.53	37181.04
664.73	37412.87
664.93	36781.68
665.12	36972.06
665.32	36589.50
665.52	36577.38
665.71	36387.33
665.91	36416.32
666.10	36058.34
666.30	36236.19
666.50	35947.83
666.69	35807.18
666.89	36060.88
667.09	36156.31
667.28	35799.80
667.48	35583.46
667.68	35499.08
667.87	35444.11
668.07	35137.33
668.27	35356.21
668.46	35319.51
668.66	35023.46
668.86	35194.67
669.05	34795.07
669.25	34894.36
669.44	34524.74
669.64	34461.01
669.84	34372.94
670.03	34592.98
670.23	34233.85
670.43	34074.43
670.62	33874.14
670.82	33787.14
671.01	33961.55
671.21	33617.82
671.41	33672.13
671.60	33808.20
671.80	33781.16
672.00	33533.85
672.19	33599.63
672.39	33508.70
672.58	33276.38
672.78	33012.03
672.98	33244.10
673.17	33019.65
673.37	32484.55
673.56	32719.99
673.76	32812.06
673.96	32898.90
674.15	32607.68
674.35	32682.88
674.54	32497.09
674.74	32482.59
674.94	32335.38
675.13	32430.57
675.33	31978.46
675.52	32236.26
675.72	32004.84
675.91	31862.13
676.11	31888.02
676.31	31536.10
676.50	31580.01
676.70	31509.88
676.89	31511.28
677.09	31598.44
677.28	31404.37
677.48	31020.34
677.68	31163.45
677.87	30959.55
678.07	30781.63
678.26	30834.71
678.46	30821.68
678.65	30752.54
678.85	30917.04
679.04	30569.70
679.24	30651.87
679.44	30479.51
679.63	30520.63
679.83	30339.43
680.02	30369.98
680.22	30250.79
680.41	30265.62
680.61	30275.20
680.80	30128.73
681.00	30221.47
681.19	30229.58
681.39	30085.07
681.59	29934.09
681.78	29790.16
681.98	30059.76
682.17	29510.41
682.37	29726.84
682.56	29464.13
682.76	29563.25
682.95	29454.46
683.15	29506.23
683.34	29416.53
683.54	29639.43
683.73	29711.36
683.93	29255.40
684.12	29589.22
684.32	29592.74
684.51	29032.17
684.71	29199.37
684.90	29080.42
685.10	29038.07
685.29	28961.47
685.49	29089.10
685.68	29045.36
685.88	28977.61
686.07	28890.94
686.27	29029.96
686.46	28893.23
686.66	28684.59
686.85	28758.31
687.05	28535.00
687.24	28518.78
687.44	28648.63
687.63	28584.32
687.83	28234.12
688.02	28492.49
688.22	28442.44
688.41	28293.18
688.61	28206.26
688.80	28372.15
689.00	28144.09
689.19	28004.25
689.39	28320.95
689.58	28235.75
689.77	28134.50
689.97	28279.25
690.16	28064.63
690.36	27812.97
690.55	27773.08
690.75	28143.35
690.94	27844.43
691.14	27869.41
691.33	27577.87
691.53	27928.56
691.72	27687.80
691.91	27624.64
692.11	27665.68
692.30	27838.12
692.50	27789.13
692.69	27543.13
692.89	27641.52
693.08	27665.11
693.28	27646.27
693.47	27660.03
693.66	27695.66
693.86	27593.92
694.05	27563.86
694.25	27561.15
694.44	27601.13
694.64	27517.41
694.83	27397.48
695.02	27385.68
695.22	27472.11
695.41	27327.60
695.61	27324.08
695.80	27375.69
695.99	27352.10
696.19	27325.39
696.38	27294.10
696.58	27109.95
696.77	27527.49
696.96	27414.27
697.16	27244.21
697.35	27248.14
697.55	27257.89
697.74	27099.54
697.93	27403.21
698.13	27137.14
698.32	27282.22
698.52	27155.08
698.71	26919.65
698.90	27415.83
699.10	27195.71
699.29	27236.35
699.49	27407.64
699.68	27169.58
699.87	27128.21
700.07	27258.55
700.26	27168.44
700.45	27164.26
700.65	27150.50
700.84	27448.84
701.04	27231.35
701.23	27438.93
701.42	27308.68
701.62	27185.88
701.81	27198.91
702.00	27057.93
702.20	26905.15
702.39	26939.80
702.58	27014.51
702.78	26914.81
702.97	26845.35
703.17	26962.16
703.36	27009.76
703.55	26844.12
703.75	26818.72
703.94	26942.99
704.13	26777.93
704.33	26883.60
704.52	26998.45
704.71	26948.32
704.91	26917.60
705.10	26776.37
705.29	26844.86
705.49	26978.38
705.68	27038.18
705.87	26999.19
706.07	26870.50
706.26	27204.81
706.45	26890.57
706.65	26866.16
706.84	27151.31
707.03	27353.33
707.23	26907.28
707.42	26856.82
707.61	27074.56
707.80	26883.36
708.00	26991.16
708.19	26894.01
708.38	27251.75
708.58	26775.63
708.77	27224.96
708.96	26795.46
709.16	26806.68
709.35	27362.26
709.54	27021.64
709.74	27001.89
709.93	26844.94
710.12	27255.51
710.31	27418.29
710.51	27142.30
710.70	27201.45
710.89	27263.13
711.09	26986.41
711.28	26981.33
711.47	27187.69
711.66	27120.59
711.86	27117.48
712.05	27272.23
712.24	27317.12
712.43	27104.29
712.63	26842.23
712.82	27235.28
713.01	27136.41
713.21	26980.27
713.40	27005.91
713.59	27226.84
713.78	26861.73
713.98	27182.20
714.17	27160.41
714.36	27300.82
714.55	27127.15
714.75	27369.71
714.94	27362.83
715.13	27632.18
715.32	27176.46
715.52	27295.25
715.71	27257.24
715.90	27265.02
716.09	27185.23
716.29	27438.69
716.48	27317.53
716.67	27004.11
716.86	27268.87
717.06	27248.22
717.25	27324.49
717.44	27385.03
717.63	27380.03
717.82	27191.95
718.02	27309.66
718.21	27509.30
718.40	27526.91
718.59	27474.73
718.79	27465.39
718.98	27527.24
719.17	27731.22
719.36	27801.18
719.55	27516.59
719.75	27353.74
719.94	27316.54
720.13	27475.47
720.32	27407.47
720.51	27296.06
720.71	27374.38
720.90	27268.05
721.09	27523.47
721.28	27452.78
721.47	27711.72
721.67	27526.17
721.86	27497.09
722.05	27394.29
722.24	27198.34
722.43	27501.60
722.63	27285.74
722.82	27396.33
723.01	27452.61
723.20	27221.27
723.39	27356.36
723.58	27598.02
723.78	27238.48
723.97	27690.50
724.16	27427.71
724.35	27671.99
724.54	27411.16
724.73	27608.58
724.93	27453.10
725.12	27690.18
725.31	27260.59
725.50	27500.53
725.69	27562.38
725.88	27440.08
726.08	27170.40
726.27	27516.92
726.46	27180.48
726.65	27789.38
726.84	27348.66
727.03	27498.40
727.23	27782.91
727.42	27532.15
727.61	27512.58
727.80	27499.71
727.99	27770.62
728.18	27764.15
728.37	27498.08
728.56	27367.25
728.76	27226.19
728.95	27355.78
729.14	27287.14
729.33	27329.24
729.52	27467.19
729.71	27645.37
729.90	27618.25
730.09	27432.54
730.29	27681.66
730.48	27324.41
730.67	27626.20
730.86	27346.77
731.05	27674.45
731.24	27372.74
731.43	27458.92
731.62	27280.42
731.81	27299.18
732.01	27691.90
732.20	27253.79
732.39	27328.18
732.58	27344.97
732.77	26956.84
732.96	27289.84
733.15	27395.19
733.34	27137.55
733.53	27263.87
733.72	27417.71
733.92	27351.77
734.11	27417.71
734.30	27303.27
734.49	27389.62
734.68	27180.89
734.87	27116.91
735.06	27192.27
735.25	27314.09
735.44	27125.59
735.63	27212.67
735.82	27338.58
736.01	27195.88
736.20	27097.08
736.40	27348.00
736.59	27240.11
736.78	27334.89
736.97	26930.05
737.16	27051.70
737.35	27117.97
737.54	27155.08
737.73	26991.82
737.92	27204.64
738.11	27212.84
738.30	27134.77
738.49	27104.87
738.68	27030.57
738.87	27153.85
739.06	26898.59
739.25	26892.04
739.44	26862.47
739.63	26682.58
739.82	26540.77
740.01	26758.19
740.20	26617.20
740.39	26729.51
740.59	26629.57
740.78	26848.54
740.97	26612.21
741.16	26571.33
741.35	26687.00
741.54	26647.84
741.73	26619.09
741.92	26443.29
742.11	26486.13
742.30	26474.26
742.49	26228.50
742.68	26427.97
742.87	26359.41
743.06	26119.71
743.25	26302.80
743.44	26197.53
743.63	26340.24
743.82	26145.93
744.01	26192.37
744.20	26044.51
744.39	26260.04
744.58	26074.25
744.77	25913.69
744.96	25669.24
745.15	25955.96
745.34	25693.73
745.53	25741.82
745.72	25551.52
745.91	25608.54
746.10	25408.49
746.29	25672.84
746.48	25611.08
746.67	25563.73
746.86	25640.90
747.04	25559.63
747.23	25481.48
747.42	25627.79
747.61	25369.75
747.80	25570.28
747.99	25094.91
748.18	25292.66
748.37	25182.48
748.56	24868.81
748.75	25077.95
748.94	25073.61
749.13	25054.69
749.32	24800.57
749.51	24934.51
749.70	24934.76
749.89	24763.79
750.08	24844.81
750.27	24530.65
750.46	24732.83
750.65	24902.73
750.84	24599.63
751.02	24708.33
751.21	24494.69
751.40	24578.25
751.59	24617.24
751.78	24467.66
751.97	24517.95
752.16	24440.87
752.35	24458.89
752.54	24154.07
752.73	24284.98
752.92	24162.67
753.11	24114.18
753.30	24207.73
753.49	24218.30
753.67	24044.14
753.86	23834.26
754.05	23976.39
754.24	23741.12
754.43	23773.89
754.62	23805.26
754.81	23537.30
755.00	23582.11
755.19	23449.98
755.38	23261.24
755.56	23468.66
755.75	23602.27
755.94	23291.79
756.13	23326.04
756.32	23317.93
756.51	23175.88
756.70	23251.98
756.89	23104.45
757.08	23018.02
757.26	22963.71
757.45	23040.88
757.64	22826.58
757.83	23079.87
758.02	22930.94
758.21	22866.06
758.40	22909.97
758.59	22756.13
758.77	22590.98
758.96	22614.49
759.15	22633.90
759.34	22453.19
759.53	22488.99
759.72	22383.73
759.91	22163.86
760.09	22297.87
760.28	22291.16
760.47	21993.30
760.66	22141.57
760.85	21823.15
761.04	21996.82
761.23	21901.39
761.41	21848.14
761.60	21932.43
761.79	21820.45
761.98	21691.43
762.17	22032.05
762.36	21784.49
762.54	21897.37
762.73	21747.95
762.92	21485.81
763.11	21657.60
763.30	21716.01
763.49	21523.00
763.67	21410.12
763.86	21294.94
764.05	21424.37
764.24	21255.54
764.43	21431.91
764.61	21155.52
764.80	21158.79
764.99	21367.60
765.18	21029.44
765.37	21101.94
765.55	21058.12
765.74	20989.39
765.93	20781.97
766.12	20883.30
766.31	20782.79
766.49	20815.80
766.68	20843.57
766.87	20698.41
767.06	20735.27
767.25	20708.16
767.43	20681.04
767.62	20520.16
767.81	20627.71
768.00	20401.54
768.19	20306.18
768.37	20363.77
768.56	20338.13
768.75	20292.42
768.94	20269.89
769.12	20106.55
769.31	19996.45
769.50	19911.01
769.69	20015.86
769.88	19783.46
770.06	20055.18
770.25	19948.20
770.44	19763.39
770.63	19863.41
770.81	19779.86
771.00	19661.65
771.19	19653.54
771.38	19678.93
771.56	19748.32
771.75	19461.11
771.94	19600.37
772.13	19479.13
772.31	19322.01
772.50	19572.68
772.69	19417.20
772.88	19581.53
773.06	19324.80
773.25	19377.63
773.44	19353.88
773.62	19150.72
773.81	19173.49
774.00	19024.32
774.19	19081.99
774.37	18979.92
774.56	19127.29
774.75	18798.14
774.94	18945.92
775.12	18763.49
775.31	18881.45
775.50	18833.94
775.68	18721.55
775.87	18772.58
776.06	18612.84
776.25	18686.81
776.43	18570.65
776.62	18710.08
776.81	18462.52
776.99	18549.19
777.18	18449.58
777.37	18238.31
777.55	18339.89
777.74	18325.63
777.93	18260.18
778.12	18289.75
778.30	18239.29
778.49	18238.80
778.68	18276.48
778.86	18222.74
779.05	18270.91
779.24	18265.34
779.42	18205.05
779.61	18084.14
779.80	18050.14
779.98	18010.25
780.17	18015.16
780.36	17744.09
780.54	17823.96
780.73	17546.59
780.92	17790.79
781.10	17714.77
781.29	17601.06
781.48	17574.60
781.66	17561.66
781.85	17612.12
782.04	17527.25
782.22	17562.56
782.41	17407.41
782.60	17523.81
782.78	17499.16
782.97	17521.11
783.16	17289.12
783.34	17262.74
783.53	17238.16
783.71	17141.66
783.90	17209.41
784.09	17169.51
784.27	17196.38
784.46	17213.91
784.65	17237.51
784.83	17149.69
785.02	17166.24
785.20	17352.60
785.39	16990.03
785.58	17177.62
785.76	17123.39
785.95	17049.18
786.14	17052.70
786.32	17074.57
786.51	16970.04
786.69	16973.24
786.88	16901.31
787.07	16855.27
787.25	16887.80
787.44	16889.19
787.62	16774.67
787.81	16888.53
788.00	16933.83
788.18	16884.93
788.37	16939.16
788.55	17222.35
788.74	17043.36
788.93	17135.44
789.11	17270.93
789.30	17245.45
789.48	17124.87
789.67	17188.93
789.86	17104.14
790.04	17088.58
790.23	17006.25
790.41	16899.51
790.60	16961.28
790.78	16921.79
790.97	16686.60
791.16	16831.11
791.34	16959.23
791.53	16758.77
791.71	16960.62
791.90	16786.38
792.08	16781.47
792.27	16707.00
792.46	16642.61
792.64	16698.32
792.83	16619.84
793.01	16695.04
793.20	16658.26
793.38	16643.19
793.57	16725.76
793.75	16680.87
793.94	16769.67
794.12	16842.74
794.31	16711.42
794.50	16848.39
794.68	16855.60
794.87	16792.44
795.05	16920.24
795.24	16783.27
795.42	16673.82
795.61	16915.65
795.79	16883.70
795.98	16655.88
796.16	16805.71
796.35	16854.95
796.53	16680.05
796.72	16835.04
796.90	16810.71
797.09	16755.33
797.27	16789.66
797.46	16719.86
797.64	16751.48
797.83	16736.66
798.01	16775.98
798.20	16841.68
798.38	16676.77
798.57	16927.94
798.75	16783.43
798.94	16627.46
799.12	16930.56
799.31	16720.35
799.49	16822.51
799.68	16758.45
799.86	16717.32
800.05	16727.56
800.23	16804.65
800.42	16779.83
800.60	16893.69
800.79	16688.16
800.97	16820.38
801.16	16922.20
801.34	16724.20
801.53	16675.13
801.71	16747.06
801.90	16631.55
802.08	16741.33
802.27	16612.39
802.45	16497.54
802.64	16586.34
802.82	16573.56
803.00	16392.27
803.19	16479.43
803.37	16564.14
803.56	16478.04
803.74	16479.19
803.93	16447.24
804.11	16439.37
804.30	16412.75
804.48	16558.97
804.67	16524.32
804.85	16493.03
805.03	16645.48
805.22	16491.23
805.40	16427.82
805.59	16524.40
805.77	16545.95
805.96	16490.33
806.14	16399.48
806.32	16464.36
806.51	16470.42
806.69	16322.31
806.88	16286.43
807.06	16305.85
807.25	16258.00
807.43	16301.26
807.61	16390.39
807.80	16365.15
807.98	16500.16
808.17	16405.38
808.35	16298.14
808.53	16415.21
808.72	16310.43
808.90	16253.34
809.09	16373.10
809.27	16346.40
809.45	16290.36
809.64	16374.74
809.82	16273.98
810.01	16257.68
810.19	16217.70
810.37	16163.72
810.56	16109.73
810.74	16209.92
810.93	16055.26
811.11	16158.56
811.29	16158.06
811.48	16238.02
811.66	16211.56
811.84	16158.96
812.03	16148.15
812.21	16162.65
812.40	16188.78
812.58	16165.11
812.76	16045.18
812.95	16188.87
813.13	15925.01
813.31	16053.04
813.50	16070.98
813.68	16032.97
813.86	16112.60
814.05	16173.63
814.23	16004.88
814.42	16133.73
814.60	16104.57
814.78	16188.05
814.97	16213.20
815.15	16173.05
815.33	16213.77
815.52	16086.14
815.70	16036.50
815.88	16024.70
816.07	15830.72
816.25	15881.01
816.43	15891.42
816.62	15739.62
816.80	15776.57
816.98	15820.07
817.17	15767.15
817.35	15832.76
817.53	15851.36
817.72	15916.32
817.90	15783.70
818.08	15817.61
818.26	15866.43
818.45	15762.15
818.63	15854.31
818.81	15900.92
819.00	15691.37
819.18	15868.81
819.36	15840.63
819.55	15876.92
819.73	15735.20
819.91	15836.37
820.09	15749.86
820.28	15879.29
820.46	15631.98
820.64	15839.97
820.83	15665.24
821.01	15708.99
821.19	15736.92
821.38	15788.69
821.56	15736.43
821.74	15828.59
821.92	15773.86
822.11	15901.58
822.29	15687.36
822.47	15712.92
822.65	15705.14
822.84	15744.37
823.02	15663.19
823.20	15901.00
823.39	15737.90
823.57	15758.79
823.75	15802.70
823.93	15747.24
824.12	15767.80
824.30	15651.81
824.48	15705.71
824.66	15808.03
824.85	15479.61
825.03	15693.34
825.21	15686.29
825.39	15661.14
825.58	15710.79
825.76	15702.10
825.94	15731.59
826.12	15725.12
826.31	15623.05
826.49	15685.64
826.67	15630.59
826.85	15586.52
827.03	15635.75
827.22	15699.65
827.40	15656.56
827.58	15654.59
827.76	15732.00
827.95	15673.68
828.13	15734.30
828.31	15716.28
828.49	15803.19
828.67	15779.60
828.86	15684.00
829.04	15757.81
829.22	15774.44
829.40	15680.40
829.58	15712.92
829.77	15698.17
829.95	15707.76
830.13	15695.39
830.31	15554.49
830.49	15614.45
830.68	15555.06
830.86	15536.38
831.04	15510.25
831.22	15514.67
831.40	15593.97
831.59	15674.33
831.77	15599.38
831.95	15696.37
832.13	15454.87
832.31	15655.98
832.50	15556.62
832.68	15481.41
832.86	15500.99
833.04	15641.40
833.22	15501.40
833.40	15761.50
833.59	15568.99
833.77	15761.58
833.95	15477.07
834.13	15867.33
834.31	15613.88
834.49	15727.34
834.67	15625.59
834.86	15638.70
835.04	15636.16
835.22	15663.44
835.40	15627.89
835.58	15624.12
835.76	15696.45
835.95	15763.13
836.13	15674.58
836.31	15619.86
836.49	15717.10
836.67	15602.25
836.85	15564.89
837.03	15557.11
837.21	15682.20
837.40	15618.30
837.58	15468.39
837.76	15637.47
837.94	15565.55
838.12	15699.24
838.30	15560.71
838.48	15549.24
838.66	15543.02
838.85	15532.37
839.03	15521.72
839.21	15501.98
839.39	15420.06
839.57	15502.06
839.75	15383.44
839.93	15497.31
840.11	15545.07
840.29	15542.03
840.47	15590.61
840.66	15610.68
840.84	15530.57
841.02	15479.94
841.20	15543.92
841.38	15492.31
841.56	15519.59
841.74	15686.62
841.92	15481.50
842.10	15467.73
842.28	15529.91
842.46	15435.05
842.65	15391.14
842.83	15515.08
843.01	15560.96
843.19	15448.16
843.37	15521.39
843.55	15477.40
843.73	15533.68
843.91	15615.43
844.09	15597.90
844.27	15735.12
844.45	15549.41
844.63	15627.56
844.81	15614.37
844.99	15628.87
845.17	15516.64
845.35	15649.84
845.54	15511.15
845.72	15537.69
845.90	15555.72
846.08	15579.72
846.26	15395.24
846.44	15553.83
846.62	15353.13
846.80	15442.75
846.98	15486.33
847.16	15487.40
847.34	15563.33
847.52	15561.45
847.70	15471.50
847.88	15580.45
848.06	15475.03
848.24	15573.49
848.42	15561.61
848.60	15502.47
848.78	15583.73
848.96	15556.86
849.14	15586.84
849.32	15762.72
849.50	15630.83
849.68	15735.04
849.86	15725.86
850.04	15660.00
850.22	15724.39
850.40	15566.61
850.58	15652.54
850.76	15829.49
850.94	15458.07
851.12	15624.77
851.30	15485.59
851.48	15630.18
851.66	15559.16
851.84	15549.08
852.02	15591.35
852.20	15750.76
852.38	15587.99
852.56	15706.04
852.74	15695.71
852.92	15623.22
853.10	15522.62
853.28	15581.85
853.46	15337.07
853.64	15527.78
853.82	15390.57
854.00	15426.94
854.18	15365.99
854.36	15369.60
854.54	15447.50
854.72	15365.25
854.90	15322.49
855.07	15412.28
855.25	15402.36
855.43	15436.36
855.61	15428.50
855.79	15349.53
855.97	15424.97
856.15	15386.39
856.33	15383.11
856.51	15488.21
856.69	15292.76
856.87	15472.16
857.05	15340.35
857.23	15337.32
857.41	15177.00
857.59	15183.07
857.77	15148.99
857.94	15183.56
858.12	15290.71
858.30	15231.48
858.48	15221.24
858.66	15196.01
858.84	15315.12
859.02	15233.45
859.20	15256.79
859.38	15439.23
859.56	15405.15
859.74	15363.45
859.92	15470.44
860.09	15348.79
860.27	15432.02
860.45	15350.59
860.63	15325.93
860.81	15371.81
860.99	15287.76
861.17	15137.27
861.35	14925.19
861.53	14866.78
861.70	14817.71
861.88	15092.87
862.06	15103.85
862.24	14896.68
862.42	14877.76
862.60	15101.07
862.78	15057.40
862.96	15150.30
863.14	14997.85
863.31	14963.85
863.49	14960.17
863.67	14914.62
863.85	14910.93
864.03	15077.31
864.21	14985.64
864.39	15026.60
864.56	14930.10
864.74	15023.98
864.92	14892.58
865.10	14921.58
865.28	14979.66
865.46	15126.54
865.64	14831.31
865.81	14956.32
865.99	14762.25
866.17	14996.87
866.35	14861.37
866.53	14902.82
866.71	14935.75
866.88	14949.43
867.06	14796.00
867.24	14878.90
867.42	14771.67
867.60	14898.73
867.78	14771.10
867.95	14967.70
868.13	14765.77
868.31	14886.93
868.49	14872.92
868.67	14829.10
868.84	14703.76
869.02	14858.42
869.20	14585.55
869.38	14779.45
869.56	14695.24
869.73	14681.23
869.91	14703.68
870.09	14717.77
870.27	14547.05
870.45	14549.43
870.62	14526.65
870.80	14675.50
870.98	14597.43
871.16	14654.94
871.34	14666.73
871.51	14708.68
871.69	14489.95
871.87	14548.85
872.05	14510.02
872.23	14509.94
872.40	14401.07
872.58	14534.76
872.76	14439.00
872.94	14518.54
873.11	14486.10
873.29	14430.48
873.47	14438.84
873.65	14403.12
873.83	14375.18
874.00	14326.03
874.18	14353.64
874.36	14350.44
874.54	14388.46
874.71	14335.13
874.89	14167.68
875.07	14347.58
875.25	14204.63
875.42	14252.55
875.60	14207.82
875.78	14251.65
875.96	14055.70
876.13	14147.70
876.31	13948.63
876.49	13956.66
876.66	13874.41
876.84	14071.18
877.02	13934.05
877.20	13996.97
877.37	13982.14
877.55	13954.78
877.73	13914.47
877.91	13902.51
878.08	14022.85
878.26	14032.85
878.44	13988.77
878.61	14059.88
878.79	13945.44
878.97	13971.65
879.15	14115.01
879.32	14032.68
879.50	14045.13
879.68	14086.91
879.85	13894.48
880.03	14069.05
880.21	13841.07
880.38	14010.65
880.56	13852.46
880.74	14006.80
880.92	13749.08
881.09	13872.28
881.27	13822.89
881.45	13800.77
881.62	13787.34
881.80	13757.60
881.98	13730.16
882.15	13890.06
882.33	13815.84
882.51	13895.55
882.68	13828.13
882.86	14031.13
883.04	13819.45
883.21	13770.46
883.39	13938.72
883.57	13758.50
883.74	13807.65
883.92	13779.55
884.10	13753.26
884.27	13760.38
884.45	13662.74
884.63	13862.21
884.80	13766.20
884.98	13809.21
885.16	13788.97
885.33	13783.08
885.51	13749.82
885.69	13777.67
885.86	13691.41
886.04	13749.73
886.21	13593.19
886.39	13746.70
886.57	13545.10
886.74	13796.92
886.92	13728.19
887.10	13793.32
887.27	13814.45
887.45	13799.87
887.62	13797.25
887.80	13802.57
887.98	13866.88
888.15	13812.89
888.33	13739.58
888.51	13881.62
888.68	13773.90
888.86	13799.38
889.03	13688.79
889.21	13722.54
889.39	13694.77
889.56	13706.48
889.74	13628.09
889.91	13622.35
890.09	13648.81
890.27	13679.69
890.44	13633.57
890.62	13668.72
890.79	13669.13
890.97	13669.62
891.14	13638.33
891.32	13700.01
891.50	13648.32
891.67	13768.66
891.85	13731.55
892.02	13741.46
892.20	13834.19
892.38	13710.74
892.55	13701.07
892.73	13785.94
892.90	13650.94
893.08	13722.46
893.25	13717.38
893.43	13769.07
893.60	13628.58
893.78	13703.53
893.96	13643.90
894.13	13732.70
894.31	13768.33
894.48	13702.96
894.66	13726.39
894.83	13780.70
895.01	13776.69
895.18	13783.89
895.36	13780.54
895.53	13844.02
895.71	13779.63
895.89	13803.72
896.06	13690.92
896.24	13814.61
896.41	13727.04
896.59	13775.87
896.76	13509.22
896.94	13608.10
897.11	13598.43
897.29	13591.14
897.46	13444.34
897.64	13505.70
897.81	13446.31
897.99	13342.52
898.16	13554.03
898.34	13544.69
898.51	13476.21
898.69	13362.83
898.86	13425.01
899.04	13527.41
899.21	13454.99
899.39	13549.85
899.56	13479.24
899.74	13695.09
899.91	13464.74
900.09	13421.81
900.26	13445.98
900.44	13354.64
900.61	13328.18
900.79	13415.01
900.96	13288.37
901.14	13303.77
901.31	13202.60
901.49	13223.32
901.66	13225.62
901.84	13172.29
902.01	13088.16
902.19	13143.62
902.36	13078.66
902.54	13091.27
902.71	13102.00
902.88	13140.83
903.06	12959.63
903.23	13152.38
903.41	13015.09
903.58	12972.08
903.76	12917.19
903.93	13056.95
904.11	13061.21
904.28	13020.82
904.45	12924.40
904.63	12901.88
904.80	12737.14
904.98	12840.11
905.15	12724.69
905.33	12794.73
905.50	12726.73
905.68	12736.24
905.85	12644.16
906.02	12651.61
906.20	12621.63
906.37	12517.84
906.55	12474.42
906.72	12590.17
906.90	12443.05
907.07	12393.41
907.24	12432.89
907.42	12341.72
907.59	12343.27
907.77	12304.11
907.94	12315.17
908.11	12333.11
908.29	12305.18
908.46	12282.00
908.64	12227.77
908.81	12326.89
908.98	12241.69
909.16	12325.25
909.33	12218.35
909.51	12239.23
909.68	12186.23
909.85	12180.09
910.03	12168.62
910.20	12093.34
910.37	12115.05
910.55	12115.95
910.72	12043.94
910.90	11992.82
911.07	11963.41
911.24	11886.66
911.42	11975.54
911.59	11784.18
911.76	11824.32
911.94	11712.91
912.11	11707.42
912.29	11651.06
912.46	11613.13
912.63	11564.22
912.81	11443.39
912.98	11545.96
913.15	11439.22
913.33	11469.77
913.50	11431.68
913.67	11383.68
913.85	11383.43
914.02	11365.74
914.19	11315.60
914.37	11219.51
914.54	11270.46
914.71	11163.07
914.89	11171.26
915.06	11203.54
915.23	11156.60
915.41	11118.50
915.58	11059.11
915.75	11021.02
915.93	10953.77
916.10	10924.60
916.27	10928.94
916.45	10883.73
916.62	10765.68
916.79	10825.07
916.97	10698.10
917.14	10690.72
917.31	10630.35
917.49	10625.19
917.66	10656.65
917.83	10645.42
918.00	10583.00
918.18	10587.92
918.35	10586.28
918.52	10609.30
918.70	10549.25
918.87	10552.69
919.04	10568.75
919.21	10527.54
919.39	10384.43
919.56	10469.95
919.73	10366.08
919.91	10364.03
920.08	10246.72
920.25	10210.60
920.42	10236.89
920.60	10139.74
920.77	10027.35
920.94	10113.93
921.11	10038.08
921.29	10072.40
921.46	9948.54
921.63	10058.31
921.81	9982.37
921.98	9952.88
922.15	9931.83
922.32	9970.41
922.50	9887.10
922.67	9897.75
922.84	9856.55
923.01	9834.10
923.19	9779.79
923.36	9751.12
923.53	9627.50
923.70	9674.85
923.87	9631.76
924.05	9631.35
924.22	9500.77
924.39	9546.16
924.56	9460.22
924.74	9475.62
924.91	9472.51
925.08	9426.39
925.25	9461.37
925.43	9468.25
925.60	9368.97
925.77	9412.71
925.94	9433.76
926.11	9358.56
926.29	9279.18
926.46	9321.04
926.63	9275.50
926.80	9223.31
926.97	9144.75
927.15	9238.22
927.32	9138.86
927.49	9100.11
927.66	9135.66
927.83	9143.53
928.01	9019.99
928.18	9044.40
928.35	8965.43
928.52	9032.28
928.69	8924.47
928.87	8940.53
929.04	8872.62
929.21	8908.50
929.38	8824.53
929.55	8859.68
929.72	8806.84
929.90	8823.71
930.07	8761.87
930.24	8694.86
930.41	8669.46
930.58	8679.13
930.75	8650.13
930.93	8626.29
931.10	8572.55
931.27	8509.80
931.44	8478.92
931.61	8482.93
931.78	8486.78
931.95	8451.07
932.13	8406.17
932.30	8431.90
932.47	8341.29
932.64	8398.31
932.81	8345.14
932.98	8362.02
933.15	8297.22
933.33	8254.46
933.50	8311.23
933.67	8246.27
933.84	8223.50
934.01	8260.77
934.18	8215.55
934.35	8206.46
934.52	8115.53
934.70	8165.09
934.87	8094.64
935.04	8083.82
935.21	8035.98
935.38	8051.96
935.55	7994.86
935.72	8030.00
935.89	7959.31
936.06	7978.23
936.24	7905.49
936.41	7954.15
936.58	7866.58
936.75	7840.20
936.92	7851.91
937.09	7832.83
937.26	7800.47
937.43	7807.18
937.60	7816.03
937.77	7798.34
937.94	7750.58
938.12	7790.31
938.29	7719.61
938.46	7755.08
938.63	7643.43
938.80	7740.26
938.97	7677.10
939.14	7646.87
939.31	7649.41
939.48	7631.14
939.65	7560.36
939.82	7561.51
939.99	7550.29
940.16	7502.86
940.33	7470.09
940.50	7440.60
940.67	7430.69
940.85	7480.82
941.02	7442.73
941.19	7437.40
941.36	7394.40
941.53	7433.80
941.70	7420.94
941.87	7357.45
942.04	7360.65
942.21	7375.06
942.38	7346.88
942.55	7318.13
942.72	7306.17
942.89	7306.01
943.06	7244.65
943.23	7225.81
943.40	7222.45
943.57	7224.82
943.74	7160.60
943.91	7173.46
944.08	7155.11
944.25	7181.73
944.42	7097.19
944.59	7098.67
944.76	7087.45
944.93	7068.61
945.10	7051.16
945.27	7022.48
945.44	6963.50
945.61	6989.23
945.78	6917.96
945.95	6921.32
946.12	6874.70
946.29	6922.87
946.46	6904.19
946.63	6861.10
946.80	6897.15
946.97	6849.47
947.14	6790.08
947.31	6841.85
947.48	6816.46
947.65	6778.12
947.82	6775.09
947.99	6788.44
948.16	6697.10
948.33	6789.84
948.50	6720.20
948.67	6763.62
948.84	6720.61
949.01	6691.37
949.18	6685.96
949.35	6722.74
949.52	6669.17
949.68	6692.35
949.85	6659.18
950.02	6639.68
950.19	6606.99
950.36	6606.42
950.53	6577.26
950.70	6530.40
950.87	6464.45
951.04	6562.59
951.21	6460.69
951.38	6454.71
951.55	6456.92
951.72	6476.17
951.89	6431.52
952.06	6476.50
952.23	6404.16
952.39	6419.32
952.56	6353.04
952.73	6388.84
952.90	6329.37
953.07	6392.61
953.24	6304.06
953.41	6344.77
953.58	6309.22
953.75	6340.02
953.92	6305.94
954.09	6267.28
954.25	6278.74
954.42	6278.99
954.59	6258.02
954.76	6228.04
954.93	6188.55
955.10	6224.27
955.27	6170.94
955.44	6209.69
955.61	6184.29
955.77	6194.78
955.94	6157.59
956.11	6136.62
956.28	6153.82
956.45	6115.48
956.62	6114.42
956.79	6111.88
956.96	6096.48
957.12	6095.57
957.29	6019.88
957.46	6041.92
957.63	6020.86
957.80	6017.59
957.97	5996.29
958.14	6048.80
958.30	5959.02
958.47	5979.66
958.64	5965.65
958.81	6028.40
958.98	5947.55
959.15	5955.49
959.32	5977.61
959.48	5966.39
959.65	5933.38
959.82	5963.36
959.99	5908.96
960.16	5941.08
960.33	5910.52
960.49	5841.13
960.66	5848.02
960.83	5835.40
961.00	5821.06
961.17	5814.43
961.33	5760.69
961.50	5779.37
961.67	5733.74
961.84	5765.36
962.01	5729.64
962.18	5773.22
962.34	5692.78
962.51	5734.07
962.68	5659.60
962.85	5734.80
963.02	5657.47
963.18	5713.01
963.35	5659.11
963.52	5656.65
963.69	5677.87
963.86	5681.88
964.02	5632.00
964.19	5679.75
964.36	5626.34
964.53	5603.32
964.69	5581.21
964.86	5616.68
965.03	5547.87
965.20	5603.49
965.37	5509.77
965.53	5542.54
965.70	5511.25
965.87	5570.64
966.04	5512.31
966.20	5480.86
966.37	5480.61
966.54	5423.10
966.71	5477.50
966.87	5432.03
967.04	5427.28
967.21	5441.21
967.38	5403.93
967.54	5405.98
967.71	5381.65
967.88	5402.46
968.05	5374.03
968.21	5319.97
968.38	5350.85
968.55	5334.55
968.72	5325.62
968.88	5311.94
969.05	5342.82
969.22	5336.60
969.39	5327.01
969.55	5322.67
969.72	5287.94
969.89	5313.99
970.05	5334.47
970.22	5332.34
970.39	5285.97
970.56	5319.72
970.72	5287.45
970.89	5298.59
971.06	5279.75
971.22	5270.49
971.39	5247.96
971.56	5269.51
971.73	5228.05
971.89	5275.81
972.06	5220.03
972.23	5242.80
972.39	5207.49
972.56	5219.45
972.73	5176.69
972.89	5185.78
973.06	5203.81
973.23	5167.76
973.39	5146.96
973.56	5161.29
973.73	5132.37
973.89	5161.21
974.06	5117.79
974.23	5124.67
974.39	5118.78
974.56	5123.20
974.73	5068.15
974.89	5072.65
975.06	5086.66
975.23	5109.85
975.39	5033.58
975.56	5050.78
975.73	5063.56
975.89	5028.99
976.06	5022.77
976.23	5008.43
976.39	5006.46
976.56	5012.20
976.73	4983.69
976.89	4987.79
977.06	4967.06
977.23	4994.18
977.39	4986.39
977.56	4998.03
977.72	4944.86
977.89	4965.91
978.06	4956.58
978.22	4916.44
978.39	4934.29
978.56	4933.07
978.72	4914.80
978.89	4913.90
979.05	4873.59
979.22	4908.24
979.39	4854.42
979.55	4875.97
979.72	4870.56
979.88	4874.74
980.05	4842.63
980.22	4878.67
980.38	4817.81
980.55	4843.04
980.71	4818.54
980.88	4824.69
981.05	4805.27
981.21	4806.50
981.38	4779.96
981.54	4800.93
981.71	4771.44
981.88	4760.87
982.04	4798.47
982.21	4764.97
982.37	4761.77
982.54	4758.58
982.70	4749.65
982.87	4740.64
983.04	4703.61
983.20	4769.39
983.37	4729.01
983.53	4755.71
983.70	4732.36
983.86	4738.92
984.03	4698.45
984.20	4715.49
984.36	4664.78
984.53	4681.82
984.69	4648.64
984.86	4657.00
985.02	4672.15
985.19	4635.04
985.35	4642.01
985.52	4633.73
985.68	4635.78
985.85	4644.55
986.02	4633.41
986.18	4643.56
986.35	4608.50
986.51	4656.26
986.68	4634.72
986.84	4631.28
987.01	4593.02
987.17	4617.92
987.34	4603.01
987.50	4586.06
987.67	4553.13
987.83	4589.58
988.00	4573.44
988.16	4575.08
988.33	4567.95
988.49	4576.55
988.66	4558.78
988.82	4564.19
988.99	4534.61
989.15	4549.85
989.32	4512.99
989.48	4531.99
989.65	4478.01
989.81	4498.73
989.98	4471.94
990.14	4477.43
990.31	4484.07
990.47	4461.95
990.64	4466.37
990.80	4464.33
990.97	4414.36
991.13	4430.41
991.30	4424.19
991.46	4425.25
991.63	4396.42
991.79	4419.52
991.95	4416.24
992.12	4429.84
992.28	4400.27
992.45	4409.36
992.61	4423.78
992.78	4403.54
992.94	4386.18
993.11	4413.78
993.27	4391.58
993.44	4407.06
993.60	4396.83
993.76	4390.76
993.93	4383.72
994.09	4404.61
994.26	4372.74
994.42	4367.01
994.59	4330.31
994.75	4363.24
994.91	4335.30
995.08	4328.50
995.24	4295.57
995.41	4330.80
995.57	4318.10
995.74	4295.00
995.90	4307.21
996.06	4291.40
996.23	4291.72
996.39	4284.19
996.56	4236.59
996.72	4300.08
996.88	4280.25
997.05	4278.04
997.21	4253.79
997.38	4267.15
997.54	4240.03
997.70	4262.31
997.87	4264.03
998.03	4259.78
998.20	4246.91
998.36	4228.81
998.52	4230.20
998.69	4252.57
998.85	4218.65
999.02	4234.63
999.18	4204.97
999.34	4229.38
999.51	4194.08
999.67	4222.75
999.83	4211.77
1000.00	4218.08
1000.16	4191.21
1000.33	4204.89
1000.49	4173.92
1000.65	4204.56
1000.82	4207.76
1000.98	4165.90
1001.14	4176.05
1001.31	4177.53
1001.47	4184.90
1001.63	4181.38
1001.80	4168.03
1001.96	4145.91
1002.12	4158.44
1002.29	4164.34
1002.45	4146.24
1002.61	4148.04
1002.78	4144.84
1002.94	4130.59
1003.10	4113.71
1003.27	4150.09
1003.43	4090.78
1003.59	4100.28
1003.76	4119.61
1003.92	4109.37
1004.08	4100.44
1004.25	4122.40
1004.41	4082.91
1004.57	4087.25
1004.74	4074.31
1004.90	4091.10
1005.06	4048.26
1005.23	4068.00
1005.39	4057.44
1005.55	4049.74
1005.71	4041.54
1005.88	4048.18
1006.04	4040.89
1006.20	4040.48
1006.37	4014.02
1006.53	4017.87
1006.69	4030.16
1006.85	4039.09
1007.02	4013.04
1007.18	4036.30
1007.34	4002.06
1007.51	4020.49
1007.67	3982.07
1007.83	4007.30
1007.99	3966.26
1008.16	3995.10
1008.32	3961.84
1008.48	3986.33
1008.64	3968.31
1008.81	3996.57
1008.97	3948.24
1009.13	3951.27
1009.29	3935.46
1009.46	3952.66
1009.62	3961.10
1009.78	3941.19
1009.95	3958.56
1010.11	3965.11
1010.27	3953.89
1010.43	3943.24
1010.59	3955.94
1010.76	3950.70
1010.92	3916.86
1011.08	3942.18
1011.24	3927.51
1011.41	3942.91
1011.57	3894.09
1011.73	3921.70
1011.89	3875.99
1012.06	3913.50
1012.22	3889.09
1012.38	3929.81
1012.54	3898.76
1012.70	3891.80
1012.87	3886.88
1013.03	3898.68
1013.19	3887.70
1013.35	3898.02
1013.51	3856.57
1013.68	3896.47
1013.84	3870.74
1014.00	3880.90
1014.16	3840.84
1014.32	3853.54
1014.49	3842.81
1014.65	3873.94
1014.81	3826.67
1014.97	3836.91
1015.13	3835.19
1015.30	3852.72
1015.46	3855.51
1015.62	3833.72
1015.78	3842.64
1015.94	3832.90
1016.10	3813.81
1016.27	3807.50
1016.43	3811.52
1016.59	3826.83
1016.75	3806.27
1016.91	3839.20
1017.07	3803.98
1017.24	3805.37
1017.40	3790.63
1017.56	3809.30
1017.72	3782.43
1017.88	3813.15
1018.04	3779.49
1018.21	3812.01
1018.37	3790.38
1018.53	3790.22
1018.69	3780.63
1018.85	3778.42
1019.01	3769.00
1019.17	3786.28
1019.34	3757.69
1019.50	3782.02
1019.66	3762.77
1019.82	3761.63
1019.98	3724.27
1020.14	3742.13
1020.30	3757.04
1020.46	3739.59
1020.63	3727.22
1020.79	3723.45
1020.95	3726.07
1021.11	3719.52
1021.27	3716.82
1021.43	3702.15
1021.59	3731.89
1021.75	3700.68
1021.91	3677.99
1022.07	3693.80
1022.24	3695.93
1022.40	3699.29
1022.56	3689.05
1022.72	3715.75
1022.88	3676.27
1023.04	3711.00
1023.20	3663.98
1023.36	3696.99
1023.52	3706.09
1023.68	3692.24
1023.84	3677.33
1024.01	3684.95
1024.17	3659.97
1024.33	3689.78
1024.49	3668.40
1024.65	3657.02
1024.81	3669.55
1024.97	3657.84
1025.13	3655.13
1025.29	3661.36
1025.45	3639.40
1025.61	3673.97
1025.77	3643.75
1025.93	3663.73
1026.09	3642.44
1026.25	3677.50
1026.41	3649.07
1026.57	3652.59
1026.73	3648.66
1026.90	3633.18
1027.06	3636.86
1027.22	3654.97
1027.38	3644.73
1027.54	3644.89
1027.70	3628.51
1027.86	3644.73
1028.02	3621.63
1028.18	3620.48
1028.34	3615.16
1028.50	3626.95
1028.66	3618.60
1028.82	3625.40
1028.98	3601.07
1029.14	3607.05
1029.30	3611.39
1029.46	3618.11
1029.62	3612.86
1029.78	3575.59
1029.94	3594.35
1030.10	3610.81
1030.26	3536.92
1030.42	3579.36
1030.58	3572.80
1030.74	3586.81
1030.90	3569.28
1031.06	3586.08
1031.22	3556.99
1031.38	3574.12
1031.54	3570.18
1031.70	3565.27
1031.86	3529.14
1032.02	3554.04
1032.18	3539.79
1032.34	3555.19
1032.50	3547.08
1032.66	3577.97
1032.82	3540.77
1032.98	3577.88
1033.14	3543.89
1033.30	3568.46
1033.45	3533.97
1033.61	3559.62
1033.77	3524.64
1033.93	3541.92
1034.09	3525.29
1034.25	3557.49
1034.41	3541.59
1034.57	3535.12
1034.73	3534.14
1034.89	3524.72
1035.05	3531.03
1035.21	3528.65
1035.37	3514.07
1035.53	3517.18
1035.69	3511.77
1035.85	3523.98
1036.01	3499.65
1036.16	3513.33
1036.32	3520.54
1036.48	3505.30
1036.64	3472.70
1036.80	3489.57
1036.96	3494.33
1037.12	3489.57
1037.28	3493.10
1037.44	3494.24
1037.60	3467.70
1037.76	3472.29
1037.91	3494.33
1038.07	3507.11
1038.23	3487.85
1038.39	3483.84
1038.55	3475.32
1038.71	3487.36
1038.87	3465.49
1039.03	3486.54
1039.19	3454.84
1039.35	3472.62
1039.50	3477.78
1039.66	3473.27
1039.82	3454.19
1039.98	3473.27
1040.14	3455.17
1040.30	3456.97
1040.46	3443.86
1040.62	3450.09
1040.77	3451.16
1040.93	3484.09
1041.09	3440.01
1041.25	3455.82
1041.41	3470.82
1041.57	3454.60
1041.73	3454.60
1041.88	3454.60

