SpectraSuite Data File
++++++++++++++++++++++++++++++++++++
Date: Tue Sep 20 12:03:19 EDT 2022
User: Laboratoire
Dark Spectrum Present: No
Reference Spectrum Present: No
Number of Sampled Component Spectra: 1
Spectrometers: FLMT00174
Integration Time (usec): 15000 (FLMT00174)
Spectra Averaged: 25 (FLMT00174)
Boxcar Smoothing: 0 (FLMT00174)
Correct for Electrical Dark: No (FLMT00174)
Strobe/Lamp Enabled: No (FLMT00174)
Correct for Detector Non-linearity: No (FLMT00174)
Correct for Stray Light: No (FLMT00174)
Number of Pixels in Processed Spectrum: 3648
>>>>>Begin Processed Spectral Data<<<<<
345.74	3174.68
345.96	3174.68
346.18	3174.68
346.39	3172.71
346.61	3215.97
346.83	3211.46
347.05	3201.06
347.27	3193.77
347.49	3217.28
347.71	3224.16
347.93	3217.03
348.15	3218.42
348.36	3221.05
348.58	3226.78
348.80	3213.26
349.02	3203.60
349.24	3223.34
349.46	3286.09
349.68	3294.77
349.90	3312.47
350.11	3280.35
350.33	3290.76
350.55	3292.07
350.77	3283.96
350.99	3283.80
351.21	3285.60
351.43	3285.19
351.65	3290.43
351.86	3274.95
352.08	3304.19
352.30	3277.00
352.52	3302.96
352.74	3255.61
352.96	3291.82
353.18	3285.43
353.39	3293.22
353.61	3246.52
353.83	3308.94
354.05	3310.01
354.27	3298.95
354.49	3286.17
354.70	3271.67
354.92	3294.28
355.14	3281.26
355.36	3285.52
355.58	3280.68
355.80	3290.10
356.02	3291.09
356.23	3284.37
356.45	3280.27
356.67	3278.72
356.89	3294.28
357.11	3285.43
357.33	3296.57
357.54	3268.64
357.76	3281.58
357.98	3272.00
358.20	3287.81
358.42	3278.80
358.63	3306.98
358.85	3305.34
359.07	3298.54
359.29	3267.58
359.51	3283.80
359.73	3279.13
359.94	3291.66
360.16	3287.32
360.38	3286.25
360.60	3268.56
360.82	3290.35
361.03	3298.95
361.25	3299.85
361.47	3293.54
361.69	3300.75
361.91	3277.81
362.12	3291.50
362.34	3282.73
362.56	3313.37
362.78	3285.27
363.00	3294.94
363.21	3281.17
363.43	3309.60
363.65	3275.11
363.87	3282.07
364.09	3292.40
364.30	3291.41
364.52	3287.81
364.74	3307.88
364.96	3276.34
365.17	3288.30
365.39	3281.99
365.61	3282.24
365.83	3283.55
366.05	3288.05
366.26	3276.18
366.48	3295.76
366.70	3311.40
366.92	3305.99
367.13	3293.63
367.35	3298.54
367.57	3297.56
367.79	3278.80
368.01	3311.07
368.22	3303.54
368.44	3301.82
368.66	3290.10
368.88	3295.26
369.09	3282.24
369.31	3281.99
369.53	3293.54
369.75	3287.07
369.96	3307.39
370.18	3279.54
370.40	3303.29
370.62	3283.47
370.83	3290.51
371.05	3304.27
371.27	3300.92
371.49	3281.91
371.70	3305.91
371.92	3293.46
372.14	3305.67
372.36	3289.61
372.57	3304.19
372.79	3298.95
373.01	3305.99
373.22	3284.70
373.44	3283.47
373.66	3299.61
373.88	3290.76
374.09	3293.38
374.31	3300.42
374.53	3292.40
374.75	3319.18
374.96	3301.90
375.18	3318.69
375.40	3281.17
375.61	3308.86
375.83	3307.55
376.05	3312.06
376.27	3302.39
376.48	3288.05
376.70	3291.90
376.92	3300.34
377.13	3290.76
377.35	3290.59
377.57	3287.73
377.79	3293.79
378.00	3303.95
378.22	3310.91
378.44	3302.31
378.65	3322.30
378.87	3301.41
379.09	3336.06
379.30	3304.44
379.52	3321.23
379.74	3320.17
379.96	3312.22
380.17	3292.48
380.39	3303.05
380.61	3312.30
380.82	3307.80
381.04	3296.49
381.26	3316.56
381.47	3299.85
381.69	3335.16
381.91	3319.43
382.12	3344.91
382.34	3335.73
382.56	3322.38
382.77	3315.01
382.99	3323.85
383.21	3317.05
383.42	3361.13
383.64	3332.45
383.86	3335.57
384.07	3342.94
384.29	3325.08
384.51	3319.68
384.72	3333.85
384.94	3317.79
385.16	3305.99
385.37	3336.14
385.59	3338.60
385.81	3341.30
386.02	3338.03
386.24	3342.04
386.46	3327.05
386.67	3344.82
386.89	3357.03
387.11	3354.82
387.32	3333.77
387.54	3362.03
387.76	3367.60
387.97	3353.84
388.19	3335.32
388.40	3344.17
388.62	3332.45
388.84	3371.78
389.05	3352.93
389.27	3352.93
389.49	3359.57
389.70	3329.42
389.92	3369.56
390.14	3341.79
390.35	3369.32
390.57	3348.43
390.78	3342.53
391.00	3337.86
391.22	3357.85
391.43	3335.81
391.65	3368.74
391.86	3354.82
392.08	3392.34
392.30	3341.71
392.51	3354.41
392.73	3374.64
392.95	3334.75
393.16	3338.84
393.38	3371.53
393.59	3362.03
393.81	3390.70
394.03	3385.70
394.24	3377.92
394.46	3371.86
394.67	3361.70
394.89	3361.86
395.11	3383.00
395.32	3406.51
395.54	3407.90
395.75	3397.66
395.97	3378.90
396.19	3371.45
396.40	3400.69
396.62	3393.81
396.83	3395.37
397.05	3406.51
397.26	3417.90
397.48	3404.87
397.70	3428.55
397.91	3409.62
398.13	3414.21
398.34	3417.40
398.56	3419.04
398.78	3446.24
398.99	3487.28
399.21	3423.38
399.42	3456.40
399.64	3436.98
399.85	3443.37
400.07	3462.30
400.29	3478.93
400.50	3458.69
400.72	3485.56
400.93	3474.09
401.15	3477.86
401.36	3487.77
401.58	3507.76
401.79	3482.94
402.01	3504.81
402.23	3503.34
402.44	3533.07
402.66	3497.36
402.87	3524.31
403.09	3521.85
403.30	3533.07
403.52	3501.13
403.73	3522.59
403.95	3552.24
404.16	3537.42
404.38	3525.62
404.60	3529.06
404.81	3561.01
405.03	3550.03
405.24	3551.59
405.46	3573.46
405.67	3571.08
405.89	3546.59
406.10	3545.85
406.32	3567.81
406.53	3563.30
406.75	3576.41
406.96	3575.75
407.18	3566.25
407.39	3563.38
407.61	3579.69
407.82	3563.38
408.04	3600.66
408.25	3569.94
408.47	3600.90
408.68	3580.18
408.90	3555.19
409.12	3572.72
409.33	3581.73
409.55	3565.60
409.76	3571.00
409.98	3564.04
410.19	3575.75
410.41	3562.73
410.62	3576.65
410.84	3560.27
411.05	3579.19
411.27	3589.52
411.48	3582.23
411.70	3588.94
411.91	3568.71
412.12	3573.87
412.34	3570.02
412.55	3583.54
412.77	3572.07
412.98	3576.98
413.20	3586.40
413.41	3591.48
413.63	3576.57
413.84	3600.17
414.06	3595.99
414.27	3589.43
414.49	3602.54
414.70	3604.10
414.92	3611.80
415.13	3599.59
415.35	3628.51
415.56	3621.05
415.78	3620.73
415.99	3624.99
416.21	3615.07
416.42	3626.79
416.63	3614.26
416.85	3637.85
417.06	3648.09
417.28	3637.60
417.49	3652.27
417.71	3653.17
417.92	3662.51
418.14	3660.05
418.35	3682.82
418.57	3694.70
418.78	3704.61
418.99	3699.86
419.21	3716.57
419.42	3700.19
419.64	3705.59
419.85	3712.39
420.07	3770.23
420.28	3719.36
420.50	3746.64
420.71	3763.10
420.92	3753.60
421.14	3783.17
421.35	3770.97
421.57	3806.93
421.78	3798.08
422.00	3815.04
422.21	3838.06
422.42	3842.32
422.64	3831.34
422.85	3856.98
423.07	3869.02
423.28	3870.42
423.50	3888.52
423.71	3905.39
423.92	3943.81
424.14	3924.73
424.35	3946.03
424.57	3960.03
424.78	3989.69
424.99	3993.87
425.21	3990.26
425.42	3991.98
425.64	4021.56
425.85	4035.48
426.06	4055.47
426.28	4047.36
426.49	4077.92
426.71	4084.96
426.92	4090.53
427.13	4125.43
427.35	4158.11
427.56	4144.35
427.78	4159.34
427.99	4152.54
428.20	4206.94
428.42	4196.04
428.63	4225.53
428.84	4181.79
429.06	4221.76
429.27	4234.54
429.49	4215.13
429.70	4262.07
429.91	4284.92
430.13	4268.62
430.34	4267.31
430.56	4287.96
430.77	4287.55
430.98	4269.20
431.20	4298.60
431.41	4301.39
431.62	4302.95
431.84	4281.89
432.05	4291.97
432.26	4294.75
432.48	4300.08
432.69	4323.67
432.91	4321.38
433.12	4306.96
433.33	4317.36
433.55	4326.05
433.76	4323.84
433.97	4316.95
434.19	4322.77
434.40	4333.34
434.61	4340.46
434.83	4331.95
435.04	4297.79
435.25	4321.79
435.47	4321.79
435.68	4289.68
435.89	4352.34
436.11	4321.95
436.32	4330.06
436.53	4306.30
436.75	4297.54
436.96	4311.38
437.17	4289.10
437.39	4296.56
437.60	4310.97
437.81	4300.08
438.03	4319.00
438.24	4275.42
438.45	4357.59
438.67	4291.64
438.88	4318.92
439.09	4352.51
439.31	4345.87
439.52	4323.67
439.73	4318.92
439.94	4298.60
440.16	4348.25
440.37	4316.87
440.58	4350.30
440.80	4350.54
441.01	4320.31
441.22	4365.78
441.44	4358.08
441.65	4341.86
441.86	4354.47
442.08	4372.33
442.29	4355.87
442.50	4359.39
442.71	4371.35
442.93	4370.69
443.14	4384.62
443.35	4411.16
443.57	4389.62
443.78	4387.24
443.99	4410.34
444.20	4412.80
444.42	4430.82
444.63	4442.54
444.84	4449.83
445.06	4490.21
445.27	4453.35
445.48	4467.68
445.69	4473.91
445.91	4505.61
446.12	4483.90
446.33	4522.32
446.54	4567.30
446.76	4517.98
446.97	4541.33
447.18	4537.32
447.39	4594.33
447.61	4596.22
447.82	4615.47
448.03	4589.74
448.25	4641.27
448.46	4648.40
448.67	4685.42
448.88	4676.66
449.10	4723.76
449.31	4733.18
449.52	4740.97
449.73	4747.93
449.95	4813.05
450.16	4799.13
450.37	4846.72
450.58	4909.55
450.79	4846.31
451.01	4912.09
451.22	4892.60
451.43	4910.54
451.64	4980.82
451.86	4962.80
452.07	5031.12
452.28	5031.94
452.49	5091.41
452.71	5069.62
452.92	5120.74
453.13	5144.33
453.34	5164.49
453.55	5205.28
453.77	5270.65
453.98	5274.83
454.19	5266.15
454.40	5307.60
454.62	5355.27
454.83	5340.61
455.04	5441.53
455.25	5363.22
455.46	5516.57
455.68	5495.44
455.89	5507.15
456.10	5530.99
456.31	5564.17
456.52	5624.95
456.74	5646.99
456.95	5727.27
457.16	5716.78
457.37	5751.52
457.58	5791.16
457.80	5777.40
458.01	5772.16
458.22	5982.85
458.43	5903.07
458.64	5934.77
458.86	5902.00
459.07	5995.55
459.28	5986.95
459.49	6056.34
459.70	6179.05
459.91	6161.03
460.13	6148.33
460.34	6172.25
460.55	6154.31
460.76	6205.51
460.97	6241.64
461.19	6213.70
461.40	6378.69
461.61	6301.44
461.82	6320.93
462.03	6349.03
462.24	6367.54
462.46	6375.08
462.67	6344.44
462.88	6432.10
463.09	6423.74
463.30	6476.91
463.51	6418.58
463.72	6525.89
463.94	6494.76
464.15	6500.58
464.36	6453.23
464.57	6564.07
464.78	6548.99
464.99	6560.95
465.20	6525.32
465.42	6632.63
465.63	6593.72
465.84	6555.88
466.05	6624.77
466.26	6651.47
466.47	6659.91
466.68	6589.05
466.90	6671.05
467.11	6626.98
467.32	6702.43
467.53	6693.74
467.74	6582.83
467.95	6621.74
468.16	6695.63
468.37	6704.48
468.59	6681.13
468.80	6702.35
469.01	6622.23
469.22	6678.18
469.43	6766.73
469.64	6709.06
469.85	6719.39
470.06	6747.73
470.28	6755.68
470.49	6655.00
470.70	6702.92
470.91	6797.54
471.12	6708.33
471.33	6793.52
471.54	6736.75
471.75	6697.68
471.96	6816.13
472.17	6778.53
472.39	6858.65
472.60	6775.91
472.81	6879.62
473.02	6849.80
473.23	6884.86
473.44	6917.87
473.65	6874.79
473.86	6882.98
474.07	6891.33
474.28	6899.85
474.49	6979.56
474.71	6956.21
474.92	6984.80
475.13	6949.66
475.34	6970.71
475.55	6957.61
475.76	7037.23
475.97	7099.73
476.18	7092.03
476.39	7138.07
476.60	7168.05
476.81	7174.61
477.02	7200.25
477.23	7159.29
477.44	7201.15
477.65	7244.73
477.87	7291.59
478.08	7319.69
478.29	7297.40
478.50	7407.50
478.71	7320.75
478.92	7411.35
479.13	7397.67
479.34	7484.59
479.55	7483.69
479.76	7476.31
479.97	7488.11
480.18	7633.52
480.39	7598.37
480.60	7689.79
480.81	7739.93
481.02	7738.95
481.23	7780.64
481.44	7840.28
481.65	7888.20
481.86	7977.49
482.07	7908.27
482.28	8117.57
482.49	8055.81
482.71	8073.34
482.92	8192.94
483.13	8231.77
483.34	8240.13
483.55	8311.56
483.76	8307.54
483.97	8434.68
484.18	8430.50
484.39	8498.41
484.60	8535.69
484.81	8622.36
485.02	8629.32
485.23	8718.12
485.44	8781.12
485.65	8879.01
485.86	8847.63
486.07	9008.20
486.28	9063.33
486.49	9132.88
486.70	9193.74
486.91	9264.85
487.12	9282.71
487.33	9320.14
487.54	9497.66
487.75	9545.34
487.96	9586.30
488.17	9567.62
488.38	9714.33
488.59	9765.45
488.80	9857.12
489.01	9941.17
489.22	10080.51
489.43	10095.18
489.64	10061.75
489.85	10311.85
490.06	10257.70
490.26	10391.88
490.47	10406.71
490.68	10569.65
490.89	10683.02
491.10	10665.66
491.31	10804.18
491.52	10965.32
491.73	11003.41
491.94	11040.44
492.15	11243.68
492.36	11344.93
492.57	11368.27
492.78	11423.08
492.99	11552.59
493.20	11717.41
493.41	11727.65
493.62	11792.78
493.83	11859.05
494.04	11993.72
494.25	12159.20
494.46	12213.43
494.67	12170.50
494.88	12360.23
495.08	12457.06
495.29	12562.08
495.50	12713.95
495.71	12705.52
495.92	12896.71
496.13	12934.81
496.34	12940.79
496.55	13098.64
496.76	13290.33
496.97	13148.21
497.18	13368.81
497.39	13386.18
497.60	13682.64
497.81	13572.30
498.02	13726.96
498.22	13664.87
498.43	13868.43
498.64	13997.95
498.85	13992.79
499.06	14075.28
499.27	14283.35
499.48	14042.84
499.69	14285.97
499.90	14365.60
500.11	14537.96
500.32	14637.98
500.52	14485.94
500.73	14789.28
500.94	14853.84
501.15	14853.92
501.36	14906.10
501.57	14857.93
501.78	15054.86
501.99	15146.78
502.20	15149.89
502.41	15175.78
502.61	15173.15
502.82	15333.31
503.03	15207.31
503.24	15427.76
503.45	15269.74
503.66	15458.64
503.87	15394.50
504.08	15537.45
504.28	15471.34
504.49	15467.90
504.70	15555.72
504.91	15572.18
505.12	15418.01
505.33	15658.44
505.54	15635.26
505.75	15633.21
505.95	15728.56
506.16	15659.10
506.37	15555.63
506.58	15811.47
506.79	15577.01
507.00	15720.70
507.21	15549.82
507.41	15545.31
507.62	15543.84
507.83	15690.55
508.04	15498.04
508.25	15652.22
508.46	15464.29
508.67	15693.50
508.87	15503.37
509.08	15630.75
509.29	15531.06
509.50	15601.67
509.71	15534.50
509.92	15571.94
510.12	15419.07
510.33	15456.68
510.54	15304.22
510.75	15345.92
510.96	15389.17
511.17	15453.48
511.37	15328.80
511.58	15338.22
511.79	15201.17
512.00	15132.28
512.21	15276.45
512.42	15248.68
512.62	15192.90
512.83	15266.46
513.04	15110.57
513.25	15235.58
513.46	14952.06
513.66	15207.07
513.87	15034.63
514.08	15130.72
514.29	15016.61
514.50	14943.70
514.71	15042.49
514.91	14912.49
515.12	14800.59
515.33	14921.91
515.54	14825.82
515.75	14886.11
515.95	14711.54
516.16	14664.77
516.37	14743.41
516.58	14730.55
516.78	14605.46
516.99	14694.59
517.20	14631.51
517.41	14626.43
517.62	14548.28
517.82	14508.22
518.03	14628.89
518.24	14680.33
518.45	14426.63
518.66	14534.11
518.86	14443.34
519.07	14516.49
519.28	14330.78
519.49	14508.06
519.69	14410.57
519.90	14425.07
520.11	14433.10
520.32	14350.53
520.52	14504.70
520.73	14219.46
520.94	14438.02
521.15	14387.06
521.36	14269.43
521.56	14476.35
521.77	14278.68
521.98	14425.89
522.19	14210.12
522.39	14364.37
522.60	14248.95
522.81	14224.86
523.02	14256.16
523.22	14326.20
523.43	14365.68
523.64	14261.48
523.84	14342.83
524.05	14420.16
524.26	14430.07
524.47	14305.55
524.67	14389.27
524.88	14400.91
525.09	14483.07
525.30	14363.14
525.50	14391.49
525.71	14438.67
525.92	14414.91
526.13	14578.59
526.33	14461.04
526.54	14403.61
526.75	14471.60
526.95	14557.62
527.16	14381.66
527.37	14551.23
527.58	14581.62
527.78	14571.63
527.99	14645.02
528.20	14751.03
528.40	14623.56
528.61	14644.86
528.82	14790.59
529.03	14734.97
529.23	14763.15
529.44	14860.39
529.65	14866.21
529.85	14891.44
530.06	14877.18
530.27	14954.76
530.47	14876.12
530.68	15111.55
530.89	14916.01
531.09	15147.27
531.30	15089.60
531.51	15074.28
531.72	15238.69
531.92	15265.56
532.13	15319.22
532.34	15284.15
532.54	15362.63
532.75	15442.18
532.96	15448.40
533.16	15564.89
533.37	15657.70
533.58	15597.00
533.78	15735.28
533.99	15808.52
534.20	15691.21
534.40	15841.12
534.61	15952.28
534.82	15975.88
535.02	16050.42
535.23	16105.47
535.44	16228.02
535.64	16237.93
535.85	16323.46
536.06	16381.95
536.26	16388.99
536.47	16452.89
536.68	16749.27
536.88	16501.30
537.09	16747.06
537.29	16626.64
537.50	16979.55
537.71	16891.89
537.91	17046.39
538.12	17182.13
538.33	17053.85
538.53	17270.03
538.74	17354.32
538.95	17420.02
539.15	17405.85
539.36	17539.54
539.56	17680.28
539.77	17633.01
539.98	17724.43
540.18	17880.82
540.39	17836.09
540.60	17976.00
540.80	18108.14
541.01	18235.44
541.21	18186.13
541.42	18409.19
541.63	18447.69
541.83	18625.95
542.04	18663.22
542.25	18719.42
542.45	18874.41
542.66	18945.60
542.86	19121.39
543.07	18848.36
543.28	19237.47
543.48	19259.43
543.69	19440.79
543.89	19479.87
544.10	19739.55
544.31	19663.69
544.51	19741.68
544.72	19876.44
544.92	19887.01
545.13	20171.43
545.33	20235.49
545.54	20255.15
545.75	20509.26
545.95	20413.09
546.16	20514.99
546.36	20852.01
546.57	20514.67
546.78	20270.71
546.98	20585.12
547.19	20350.83
547.39	20926.55
547.60	21115.21
547.80	21393.16
548.01	21520.63
548.22	21453.87
548.42	21601.40
548.63	21806.03
548.83	21743.12
549.04	21996.82
549.24	21907.78
549.45	22088.24
549.65	22300.25
549.86	22079.48
550.07	22199.16
550.27	22532.90
550.48	22598.76
550.68	22588.11
550.89	22605.48
551.09	22845.01
551.30	22748.02
551.50	22926.27
551.71	22891.54
551.91	22983.78
552.12	23153.27
552.33	23333.25
552.53	23158.92
552.74	23458.09
552.94	23557.87
553.15	23351.43
553.35	23626.10
553.56	23486.84
553.76	23756.77
553.97	23578.43
554.17	23736.29
554.38	24039.06
554.58	23789.70
554.79	24127.86
554.99	23885.95
555.20	24019.56
555.40	24237.79
555.61	24049.87
555.81	24002.36
556.02	24388.36
556.22	24321.68
556.43	24292.68
556.63	24246.39
556.84	24238.78
557.04	24484.53
557.25	24230.67
557.45	24439.64
557.66	24379.18
557.86	24263.27
558.07	24585.21
558.27	24395.08
558.48	24513.37
558.68	24488.71
558.89	24543.84
559.09	24634.20
559.30	24542.20
559.50	24630.10
559.71	24342.48
559.91	24633.13
560.12	24458.73
560.32	24444.23
560.53	24489.94
560.73	24397.86
560.94	24585.13
561.14	24261.63
561.35	24657.38
561.55	24490.10
561.76	24581.03
561.96	24241.40
562.17	24424.24
562.37	24456.68
562.57	24280.47
562.78	24264.50
562.98	24276.05
563.19	24310.86
563.39	24361.16
563.60	24394.99
563.80	24074.69
564.01	24349.78
564.21	24107.95
564.42	24007.60
564.62	24069.37
564.82	24210.10
565.03	23972.05
565.23	23979.01
565.44	24012.02
565.64	23794.20
565.85	23894.22
566.05	23754.47
566.25	23838.60
566.46	23580.48
566.66	23638.97
566.87	23594.89
567.07	23517.64
567.28	23471.52
567.48	23541.89
567.68	23221.26
567.89	23608.33
568.09	23260.17
568.30	23203.90
568.50	23313.34
568.71	23164.49
568.91	23176.53
569.11	23028.10
569.32	22987.96
569.52	23059.15
569.73	22676.83
569.93	22923.16
570.13	22765.96
570.34	22740.56
570.54	22785.04
570.75	22656.60
570.95	22618.75
571.15	22496.69
571.36	22666.02
571.56	22399.94
571.77	22319.09
571.97	22107.17
572.17	22361.69
572.38	22210.63
572.58	22243.48
572.79	22126.58
572.99	22168.61
573.19	22044.34
573.40	21971.10
573.60	21975.36
573.81	21897.78
574.01	21906.14
574.21	21703.88
574.42	21731.32
574.62	21527.02
574.82	21656.37
575.03	21432.07
575.23	21573.88
575.43	21432.48
575.64	21386.86
575.84	21474.92
576.05	21280.93
576.25	21360.81
576.45	21252.02
576.66	21388.90
576.86	21141.26
577.06	21290.03
577.27	21168.62
577.47	21202.62
577.67	21085.31
577.88	20847.34
578.08	21026.17
578.28	20955.55
578.49	20876.26
578.69	20884.20
578.89	20719.71
579.10	20762.63
579.30	20949.57
579.50	20765.17
579.71	20618.13
579.91	20828.25
580.11	20631.89
580.32	20565.54
580.52	20530.31
580.72	20700.05
580.93	20445.86
581.13	20445.77
581.33	20572.42
581.54	20419.40
581.74	20411.45
581.94	20434.88
582.15	20466.50
582.35	20338.30
582.55	20389.41
582.76	20218.20
582.96	20397.69
583.16	20309.71
583.37	20400.31
583.57	20210.42
583.77	20310.77
583.97	20018.24
584.18	20332.89
584.38	20267.27
584.58	20063.95
584.79	20271.94
584.99	20227.30
585.19	20094.67
585.40	20144.07
585.60	20225.08
585.80	20111.71
586.00	20190.27
586.21	20069.52
586.41	20115.23
586.61	20211.90
586.82	20162.25
587.02	20152.91
587.22	20253.35
587.42	20013.16
587.63	20267.44
587.83	20049.04
588.03	20121.54
588.23	20020.70
588.44	20182.98
588.64	20040.85
588.84	20156.35
589.05	20251.63
589.25	20264.90
589.45	20257.69
589.65	20196.33
589.86	20279.23
590.06	20243.02
590.26	20132.84
590.46	20293.90
590.67	20061.66
590.87	20320.68
591.07	20353.20
591.27	20188.06
591.48	20368.61
591.68	20188.88
591.88	20537.36
592.08	20248.19
592.29	20418.41
592.49	20405.06
592.69	20501.97
592.89	20390.48
593.10	20422.43
593.30	20406.78
593.50	20601.91
593.70	20354.60
593.90	20621.00
594.11	20576.93
594.31	20679.82
594.51	20834.31
594.71	20833.49
594.92	20850.04
595.12	20760.18
595.32	20788.60
595.52	20856.19
595.72	20655.89
595.93	20961.12
596.13	20960.22
596.33	20854.71
596.53	21127.99
596.73	21127.83
596.94	21125.45
597.14	21169.44
597.34	21116.11
597.54	21450.92
597.74	21175.67
597.95	21337.62
598.15	21372.27
598.35	21489.50
598.55	21543.73
598.75	21437.65
598.96	21753.36
599.16	21679.63
599.36	21719.94
599.56	21754.92
599.76	21828.40
599.97	21977.57
600.17	21928.42
600.37	21991.09
600.57	21763.85
600.77	22148.62
600.97	22029.84
601.18	22286.65
601.38	22184.99
601.58	22336.29
601.78	22342.60
601.98	22267.40
602.18	22499.31
602.39	22650.70
602.59	22610.39
602.79	22632.10
602.99	22706.40
603.19	22748.18
603.39	22779.88
603.60	22835.75
603.80	22899.08
604.00	22994.84
604.20	23094.04
604.40	23207.99
604.60	23206.93
604.80	23241.17
605.01	23367.24
605.21	23376.99
605.41	23441.79
605.61	23441.21
605.81	23576.54
606.01	23799.12
606.21	23626.60
606.42	23801.00
606.62	23749.72
606.82	24100.25
607.02	23957.38
607.22	24123.02
607.42	24296.45
607.62	24073.63
607.82	24362.47
608.03	24398.11
608.23	24469.46
608.43	24376.07
608.63	24656.81
608.83	24760.68
609.03	24807.37
609.23	24807.13
609.43	24925.58
609.63	24872.66
609.84	24918.62
610.04	25256.94
610.24	25267.51
610.44	25312.89
610.64	25238.59
610.84	25449.04
611.04	25707.17
611.24	25643.03
611.44	25504.67
611.64	25791.87
611.85	25811.04
612.05	25886.90
612.25	25898.53
612.45	25985.53
612.65	26143.39
612.85	26285.43
613.05	26223.83
613.25	26496.05
613.45	26523.08
613.65	26630.39
613.85	26580.75
614.05	26763.92
614.25	26975.93
614.46	26857.80
614.66	26893.11
614.86	26796.20
615.06	26905.07
615.26	27177.69
615.46	26900.23
615.66	27402.23
615.86	27395.02
616.06	27299.75
616.26	27441.55
616.46	27714.26
616.66	27635.62
616.86	27921.51
617.06	27768.57
617.26	28110.83
617.46	27939.29
617.66	27916.52
617.86	27966.00
618.07	28139.50
618.27	28163.67
618.47	28244.60
618.67	28338.48
618.87	28454.31
619.07	28343.64
619.27	28313.41
619.47	28428.18
619.67	28623.89
619.87	28522.63
620.07	28725.06
620.27	28717.19
620.47	28648.87
620.67	28709.25
620.87	28823.03
621.07	28906.34
621.27	29016.69
621.47	28867.59
621.67	29126.95
621.87	29004.23
622.07	29417.02
622.27	29338.05
622.47	29242.37
622.67	29463.80
622.87	29313.07
623.07	29558.50
623.27	29822.68
623.47	29304.71
623.67	29541.21
623.87	29672.69
624.07	29599.46
624.27	29465.19
624.47	29603.47
624.67	29571.93
624.87	29688.91
625.07	29579.30
625.27	29847.10
625.47	29634.85
625.67	29644.51
625.87	29862.82
626.07	29796.55
626.27	29973.91
626.47	29897.97
626.67	29838.33
626.87	29661.55
627.07	29968.91
627.27	29830.63
627.47	29970.22
627.67	29833.25
627.87	29771.40
628.07	30053.29
628.27	29859.14
628.47	29817.77
628.67	30035.35
628.86	30113.74
629.06	29887.07
629.26	29867.66
629.46	29995.29
629.66	29940.73
629.86	29744.37
630.06	29912.30
630.26	29811.38
630.46	30146.43
630.66	29813.59
630.86	29959.90
631.06	29943.11
631.26	29735.77
631.46	30133.32
631.66	29982.59
631.86	29770.58
632.06	30029.45
632.26	29912.71
632.45	29914.11
632.65	29855.62
632.85	29898.54
633.05	29775.42
633.25	29727.17
633.45	29473.55
633.65	29486.24
633.85	29755.35
634.05	29225.74
634.25	29422.68
634.45	29405.31
634.65	29601.42
634.84	29338.87
635.04	29378.93
635.24	29166.60
635.44	29311.51
635.64	29002.68
635.84	29160.54
636.04	29143.09
636.24	29116.63
636.44	29152.43
636.64	28791.74
636.84	29217.31
637.03	28868.17
637.23	28943.29
637.43	28868.41
637.63	28696.96
637.83	28864.56
638.03	28779.70
638.23	28416.96
638.43	28694.09
638.62	28822.29
638.82	28224.37
639.02	28614.55
639.22	28301.04
639.42	28449.89
639.62	28157.77
639.82	28235.10
640.02	28123.12
640.21	28234.44
640.41	27874.33
640.61	28018.75
640.81	27902.26
641.01	27884.90
641.21	27665.03
641.41	27979.51
641.61	27631.52
641.80	27614.24
642.00	27786.35
642.20	27751.70
642.40	27364.39
642.60	27512.41
642.80	27565.91
642.99	27227.33
643.19	27307.21
643.39	27032.12
643.59	27199.07
643.79	27097.66
643.99	27174.42
644.19	27083.90
644.38	26826.18
644.58	26902.77
644.78	26722.39
644.98	26724.85
645.18	26745.73
645.38	26878.28
645.57	26537.25
645.77	26580.42
645.97	26356.62
646.17	26512.02
646.37	26336.06
646.56	26245.05
646.76	26230.38
646.96	26230.71
647.16	26042.79
647.36	26077.11
647.55	25929.00
647.75	25907.13
647.95	25721.09
648.15	25809.98
648.35	25798.92
648.55	25691.52
648.74	25549.80
648.94	25518.67
649.14	25726.34
649.34	25417.01
649.54	25307.90
649.73	25380.80
649.93	25250.31
650.13	25099.41
650.33	24977.68
650.52	25179.53
650.72	25175.35
650.92	24950.98
651.12	24884.29
651.32	24981.78
651.51	24976.13
651.71	24922.88
651.91	24720.54
652.11	24583.65
652.30	24472.24
652.50	24605.36
652.70	24475.77
652.90	24225.91
653.10	24362.96
653.29	24259.17
653.49	24276.54
653.69	24200.68
653.89	24131.38
654.08	24070.68
654.28	24169.23
654.48	24041.76
654.68	24169.06
654.87	24019.40
655.07	23821.24
655.27	24037.42
655.47	23721.70
655.66	23608.90
655.86	23579.25
656.06	23774.38
656.26	23333.82
656.45	23512.24
656.65	23391.00
656.85	23358.31
657.04	23249.28
657.24	23258.94
657.44	23203.90
657.64	23359.62
657.83	22966.09
658.03	23260.42
658.23	23124.84
658.43	23053.33
658.62	23082.25
658.82	22946.42
659.02	22883.59
659.21	22900.47
659.41	22791.60
659.61	22974.52
659.81	22800.12
660.00	22666.59
660.20	22716.48
660.40	22614.08
660.59	22672.49
660.79	22517.66
660.99	22671.01
661.19	22629.32
661.38	22544.20
661.58	22230.29
661.78	22403.39
661.97	22180.89
662.17	22504.47
662.37	22191.30
662.56	22240.61
662.76	22237.75
662.96	22203.83
663.15	22273.05
663.35	22191.46
663.55	22006.57
663.74	21932.76
663.94	22111.35
664.14	21855.02
664.33	22026.48
664.53	21871.00
664.73	22068.34
664.93	21814.64
665.12	21919.08
665.32	21869.28
665.52	21877.47
665.71	21764.67
665.91	21896.55
666.10	21758.93
666.30	21853.71
666.50	21695.28
666.69	21682.99
666.89	21766.39
667.09	21892.79
667.28	21738.86
667.48	21627.70
667.68	21659.24
667.87	21704.70
668.07	21558.39
668.27	21794.97
668.46	21653.91
668.66	21608.36
668.86	21663.90
669.05	21531.20
669.25	21689.30
669.44	21489.01
669.64	21397.18
669.84	21439.37
670.03	21593.86
670.23	21421.67
670.43	21456.57
670.62	21538.16
670.82	21479.51
671.01	21595.99
671.21	21347.53
671.41	21402.34
671.60	21537.91
671.80	21494.25
672.00	21429.86
672.19	21561.75
672.39	21427.98
672.58	21463.12
672.78	21299.20
672.98	21494.01
673.17	21388.66
673.37	21125.21
673.56	21259.23
673.76	21313.54
673.96	21444.85
674.15	21383.33
674.35	21366.05
674.54	21286.01
674.74	21398.49
674.94	21315.91
675.13	21396.52
675.33	21178.95
675.52	21415.12
675.72	21384.23
675.91	21404.96
676.11	21559.79
676.31	21267.42
676.50	21390.71
676.70	21413.81
676.89	21510.88
677.09	21535.54
677.28	21571.99
677.48	21331.07
677.68	21572.98
677.87	21334.76
678.07	21392.84
678.26	21403.08
678.46	21483.77
678.65	21340.74
678.85	21495.56
679.04	21285.85
679.24	21444.69
679.44	21257.67
679.63	21554.79
679.83	21434.12
680.02	21465.50
680.22	21475.41
680.41	21562.98
680.61	21424.87
680.80	21414.22
681.00	21485.16
681.19	21474.51
681.39	21418.80
681.59	21381.20
681.78	21466.73
681.98	21588.29
682.17	21323.61
682.37	21532.18
682.56	21370.31
682.76	21585.34
682.95	21537.26
683.15	21593.70
683.34	21599.84
683.54	21567.49
683.73	21719.45
683.93	21576.99
684.12	21743.28
684.32	21783.26
684.51	21639.90
684.71	21820.78
684.90	21786.95
685.10	21778.84
685.29	21795.14
685.49	21909.01
685.68	21868.05
685.88	21870.26
686.07	21668.74
686.27	21823.73
686.46	21826.68
686.66	21740.17
686.85	21894.51
687.05	21837.82
687.24	21810.05
687.44	22118.80
687.63	22068.83
687.83	21890.41
688.02	22082.76
688.22	22136.33
688.41	21978.47
688.61	22066.86
688.80	22102.50
689.00	21916.05
689.19	21907.29
689.39	22176.06
689.58	22147.64
689.77	22214.89
689.97	22348.17
690.16	22265.93
690.36	22131.58
690.55	22138.46
690.75	22440.33
690.94	22268.79
691.14	22363.98
691.33	22182.78
691.53	22387.98
691.72	22330.40
691.91	22372.50
692.11	22415.67
692.30	22543.88
692.50	22651.68
692.69	22497.59
692.89	22624.48
693.08	22568.21
693.28	22616.46
693.47	22773.58
693.66	22791.11
693.86	22751.54
694.05	22685.68
694.25	22716.15
694.44	22779.47
694.64	22746.46
694.83	22802.25
695.02	22850.17
695.22	22950.60
695.41	22905.55
695.61	22861.23
695.80	23042.02
695.99	23014.25
696.19	23051.77
696.38	23081.59
696.58	22937.25
696.77	23283.93
696.96	23212.99
697.16	23116.00
697.35	23187.68
697.55	23184.07
697.74	23173.18
697.93	23526.16
698.13	23263.37
698.32	23464.56
698.52	23317.27
698.71	23269.10
698.90	23630.28
699.10	23454.08
699.29	23463.09
699.49	23615.21
699.68	23422.29
699.87	23513.06
700.07	23802.48
700.26	23627.58
700.45	23682.71
700.65	23642.00
700.84	23865.39
701.04	23650.11
701.23	23888.82
701.42	23782.98
701.62	23813.70
701.81	23934.12
702.00	23938.95
702.20	23796.25
702.39	23924.04
702.58	24147.27
702.78	23907.99
702.97	23997.61
703.17	24096.32
703.36	24112.13
703.55	23971.23
703.75	24044.63
703.94	24227.96
704.13	24099.02
704.33	24150.14
704.52	24410.31
704.71	24328.15
704.91	24327.66
705.10	24343.06
705.29	24383.44
705.49	24399.09
705.68	24488.14
705.87	24413.84
706.07	24348.46
706.26	24547.61
706.45	24368.29
706.65	24335.85
706.84	24526.56
707.03	24805.65
707.23	24442.92
707.42	24472.90
707.61	24656.56
707.80	24574.97
708.00	24549.82
708.19	24592.66
708.38	24833.01
708.58	24449.31
708.77	24863.00
708.96	24586.68
709.16	24629.94
709.35	25009.38
709.54	24847.35
709.74	24755.52
709.93	24657.13
710.12	25068.04
710.31	25210.00
710.51	25024.54
710.70	25025.52
710.89	25072.54
711.09	24791.97
711.28	24839.81
711.47	24942.70
711.66	24886.02
711.86	25006.52
712.05	24975.39
712.24	25210.25
712.43	25124.48
712.63	24894.94
712.82	25215.82
713.01	25140.70
713.21	24972.19
713.40	25055.26
713.59	25290.53
713.78	24977.68
713.98	25229.58
714.17	25078.28
714.36	25135.95
714.55	24945.90
714.75	25066.07
714.94	25098.84
715.13	25340.25
715.32	24972.85
715.52	25161.59
715.71	25040.68
715.90	25098.76
716.09	25127.35
716.29	25323.13
716.48	25287.17
716.67	24991.28
716.86	25135.46
717.06	25086.63
717.25	25109.41
717.44	25186.66
717.63	25109.41
717.82	25006.11
718.02	25058.04
718.21	25251.78
718.40	25299.54
718.59	25247.69
718.79	25175.68
718.98	25160.61
719.17	25386.21
719.36	25472.47
719.55	25242.94
719.75	25195.42
719.94	25166.50
720.13	25331.98
720.32	25193.13
720.51	25073.36
720.71	25112.85
720.90	24847.84
721.09	24962.20
721.28	24941.64
721.47	25120.06
721.67	24984.97
721.86	24912.31
722.05	25019.54
722.24	24797.46
722.43	25094.33
722.63	24898.22
722.82	25005.29
723.01	25049.85
723.20	24821.55
723.39	24816.22
723.58	24996.28
723.78	24695.31
723.97	24938.93
724.16	24701.70
724.35	24767.72
724.54	24570.38
724.73	24808.19
724.93	24604.71
725.12	24708.42
725.31	24361.74
725.50	24582.83
725.69	24703.66
725.88	24549.90
726.08	24306.93
726.27	24569.48
726.46	24186.10
726.65	24678.02
726.84	24326.35
727.03	24467.08
727.23	24611.92
727.42	24345.27
727.61	24335.28
727.80	24286.45
727.99	24283.42
728.18	24323.64
728.37	24189.79
728.56	24048.56
728.76	23952.80
728.95	24019.56
729.14	24027.42
729.33	23986.22
729.52	24079.53
729.71	24055.20
729.90	24041.84
730.09	23831.88
730.29	23926.99
730.48	23619.47
730.67	23903.32
730.86	23561.14
731.05	23847.86
731.24	23604.72
731.43	23680.33
731.62	23471.28
731.81	23533.21
732.01	23761.11
732.20	23484.06
732.39	23617.50
732.58	23564.26
732.77	23201.60
732.96	23479.47
733.15	23459.24
733.34	23225.77
733.53	23255.42
733.72	23236.42
733.92	23149.83
734.11	23001.88
734.30	23041.37
734.49	23161.63
734.68	23001.47
734.87	22945.77
735.06	22951.01
735.25	22978.37
735.44	22821.83
735.63	22889.49
735.82	22943.56
736.01	22770.87
736.20	22739.33
736.40	22905.96
736.59	22764.16
736.78	22816.09
736.97	22464.25
737.16	22551.99
737.35	22528.15
737.54	22481.70
737.73	22323.27
737.92	22377.25
738.11	22446.31
738.30	22199.24
738.49	22234.14
738.68	22109.71
738.87	22171.72
739.06	22004.93
739.25	22004.44
739.44	21996.00
739.63	21934.15
739.82	21826.35
740.01	21940.54
740.20	21809.23
740.39	21822.91
740.59	21781.95
740.78	21832.82
740.97	21646.46
741.16	21483.19
741.35	21570.68
741.54	21455.91
741.73	21444.28
741.92	21248.09
742.11	21260.70
742.30	21289.86
742.49	21037.23
742.68	21198.52
742.87	21157.57
743.06	20950.39
743.25	21097.52
743.44	20919.02
743.63	21107.27
743.82	20875.03
744.01	20855.69
744.20	20726.84
744.39	20866.59
744.58	20809.16
744.77	20699.89
744.96	20526.55
745.15	20746.58
745.34	20633.94
745.53	20664.82
745.72	20439.06
745.91	20404.57
746.10	20225.58
746.29	20445.86
746.48	20330.19
746.67	20254.74
746.86	20240.40
747.04	20155.21
747.23	20045.52
747.42	20160.61
747.61	19919.20
747.80	20133.91
747.99	19715.39
748.18	19877.01
748.37	19768.31
748.56	19566.70
748.75	19690.15
748.94	19641.90
749.13	19624.87
749.32	19513.54
749.51	19525.91
749.70	19439.81
749.89	19414.25
750.08	19480.11
750.27	19179.15
750.46	19273.11
750.65	19340.85
750.84	19093.46
751.02	19147.69
751.21	19058.07
751.40	19017.77
751.59	19073.80
751.78	19026.37
751.97	19028.66
752.16	18871.87
752.35	18955.10
752.54	18700.99
752.73	18820.91
752.92	18615.79
753.11	18620.38
753.30	18627.50
753.49	18629.31
753.67	18546.24
753.86	18382.98
754.05	18525.60
754.24	18327.27
754.43	18362.09
754.62	18363.81
754.81	18201.20
755.00	18225.45
755.19	18213.90
755.38	17991.82
755.56	18255.27
755.75	18253.96
755.94	18066.44
756.13	18042.85
756.32	18025.81
756.51	17889.91
756.70	17848.78
756.89	17840.76
757.08	17786.69
757.26	17789.31
757.45	17771.21
757.64	17605.73
757.83	17749.58
758.02	17573.78
758.21	17490.31
758.40	17480.56
758.59	17489.41
758.77	17400.12
758.96	17388.32
759.15	17454.10
759.34	17240.29
759.53	17320.90
759.72	17321.72
759.91	17168.12
760.09	17277.89
760.28	17335.89
760.47	17116.68
760.66	17263.64
760.85	17042.95
761.04	17151.57
761.23	17062.36
761.41	17011.90
761.60	17064.58
761.79	16911.55
761.98	16787.20
762.17	16953.09
762.36	16787.86
762.54	16864.12
762.73	16763.36
762.92	16616.65
763.11	16775.49
763.30	16817.18
763.49	16743.46
763.67	16731.17
763.86	16669.97
764.05	16742.64
764.24	16636.31
764.43	16711.83
764.61	16490.90
764.80	16536.77
764.99	16649.99
765.18	16428.64
765.37	16510.48
765.55	16557.83
765.74	16434.87
765.93	16315.35
766.12	16462.47
766.31	16312.40
766.49	16305.76
766.68	16297.33
766.87	16192.72
767.06	16139.47
767.25	16187.31
767.43	16113.99
767.62	16096.71
767.81	16103.01
768.00	16078.27
768.19	15982.18
768.37	16057.06
768.56	15997.01
768.75	16081.55
768.94	16022.73
769.12	15963.59
769.31	15971.37
769.50	15924.10
769.69	15953.92
769.88	15828.50
770.06	16027.73
770.25	15834.40
770.44	15777.31
770.63	15878.88
770.81	15804.75
771.00	15766.00
771.19	15784.10
771.38	15690.96
771.56	15782.38
771.75	15494.11
771.94	15633.29
772.13	15597.82
772.31	15541.63
772.50	15642.14
772.69	15533.11
772.88	15681.13
773.06	15503.86
773.25	15630.43
773.44	15634.93
773.62	15570.13
773.81	15567.02
774.00	15529.83
774.19	15520.24
774.37	15402.61
774.56	15516.48
774.75	15328.39
774.94	15402.53
775.12	15332.40
775.31	15410.15
775.50	15406.05
775.68	15344.86
775.87	15323.89
776.06	15235.09
776.25	15321.18
776.43	15214.93
776.62	15368.61
776.81	15182.00
776.99	15256.96
777.18	15240.82
777.37	15163.82
777.55	15219.52
777.74	15190.11
777.93	15192.49
778.12	15150.30
778.30	15042.99
778.49	15083.95
778.68	15107.70
778.86	15098.12
779.05	15131.95
779.24	15114.42
779.42	15026.19
779.61	14958.12
779.80	15000.96
779.98	14943.70
780.17	15036.76
780.36	14900.61
780.54	15066.33
780.73	14804.36
780.92	15049.70
781.10	14994.49
781.29	14949.84
781.48	14896.11
781.66	14965.33
781.85	14965.49
782.04	14936.57
782.22	14897.01
782.41	14773.72
782.60	14894.55
782.78	14886.11
782.97	14912.08
783.16	14735.38
783.34	14764.71
783.53	14774.87
783.71	14736.36
783.90	14710.72
784.09	14765.77
784.27	14750.45
784.46	14735.46
784.65	14798.87
784.83	14700.40
785.02	14671.32
785.20	14786.91
785.39	14597.10
785.58	14736.77
785.76	14712.94
785.95	14680.74
786.14	14703.60
786.32	14751.76
786.51	14666.00
786.69	14758.07
786.88	14693.85
787.07	14693.36
787.25	14707.28
787.44	14705.56
787.62	14689.26
787.81	14770.61
788.00	14761.51
788.18	14733.66
788.37	14701.47
788.55	14931.33
788.74	14717.52
788.93	14774.95
789.11	14845.23
789.30	14850.56
789.48	14715.47
789.67	14832.29
789.86	14754.47
790.04	14771.51
790.23	14703.35
790.41	14691.14
790.60	14817.14
790.78	14826.88
790.97	14693.85
791.16	14833.85
791.34	14987.69
791.53	14780.85
791.71	15019.48
791.90	14957.30
792.08	14892.58
792.27	14969.18
792.46	14949.19
792.64	15037.09
792.83	14956.48
793.01	15032.50
793.20	14965.65
793.38	15014.56
793.57	14993.26
793.75	14971.47
793.94	15065.27
794.12	15160.38
794.31	15031.60
794.50	15120.32
794.68	15229.43
794.87	15109.42
795.05	15273.01
795.24	15153.33
795.42	15143.42
795.61	15317.00
795.79	15334.37
795.98	15261.87
796.16	15292.43
796.35	15377.62
796.53	15253.84
796.72	15339.29
796.90	15381.15
797.09	15366.24
797.27	15308.32
797.46	15311.84
797.64	15370.17
797.83	15327.90
798.01	15388.85
798.20	15525.73
798.38	15381.88
798.57	15528.35
798.75	15560.22
798.94	15332.24
799.12	15718.24
799.31	15616.91
799.49	15592.66
799.68	15537.45
799.86	15545.56
800.05	15557.35
800.23	15493.95
800.42	15415.80
800.60	15614.53
800.79	15412.85
800.97	15522.70
801.16	15639.60
801.34	15495.91
801.53	15511.81
801.71	15646.15
801.90	15602.49
802.08	15702.51
802.27	15621.33
802.45	15592.66
802.64	15707.84
802.82	15794.84
803.00	15611.91
803.19	15735.94
803.37	15830.63
803.56	15730.94
803.74	15721.93
803.93	15788.12
804.11	15707.02
804.30	15646.73
804.48	15684.16
804.67	15760.84
804.85	15740.69
805.03	15779.76
805.22	15691.21
805.40	15658.44
805.59	15745.19
805.77	15769.52
805.96	15730.94
806.14	15697.60
806.32	15755.35
806.51	15944.01
806.69	15831.86
806.88	15802.13
807.06	15864.79
807.25	15933.77
807.43	15914.93
807.61	15949.01
807.80	15915.75
807.98	16040.92
808.17	15998.57
808.35	15891.75
808.53	16065.33
808.72	15978.50
808.90	16002.25
809.09	16035.19
809.27	16047.23
809.45	15931.23
809.64	16108.99
809.82	15993.00
810.01	16043.71
810.19	16046.65
810.37	15966.87
810.56	16029.29
810.74	16113.01
810.93	15988.33
811.11	16109.57
811.29	16040.02
811.48	16102.69
811.66	16120.30
811.84	16051.65
812.03	16070.17
812.21	16077.78
812.40	16104.82
812.58	16137.83
812.76	16045.02
812.95	16175.76
813.13	16047.06
813.31	16105.64
813.50	16184.61
813.68	16152.00
813.86	16141.43
814.05	16214.75
814.23	16016.51
814.42	16146.76
814.60	16040.18
814.78	16128.16
814.97	16076.88
815.15	16069.35
815.33	16174.78
815.52	16121.28
815.70	16154.30
815.88	16148.48
816.07	16073.20
816.25	16158.72
816.43	16197.22
816.62	16021.67
816.80	16087.86
816.98	16074.26
817.17	16050.01
817.35	16122.92
817.53	16135.21
817.72	16215.24
817.90	16032.56
818.08	16141.60
818.26	16275.45
818.45	16114.16
818.63	16184.61
818.81	16201.64
819.00	16099.57
819.18	16268.90
819.36	16211.15
819.55	16286.10
819.73	16159.54
819.91	16320.59
820.09	16234.08
820.28	16362.94
820.46	16246.70
820.64	16455.27
820.83	16289.13
821.01	16286.51
821.19	16330.18
821.38	16405.05
821.56	16280.04
821.74	16334.84
821.92	16271.60
822.11	16409.96
822.29	16200.99
822.47	16239.90
822.65	16309.12
822.84	16372.53
823.02	16181.74
823.20	16448.55
823.39	16310.84
823.57	16348.61
823.75	16354.01
823.93	16324.11
824.12	16354.01
824.30	16324.85
824.48	16341.15
824.66	16446.50
824.85	16226.88
825.03	16347.87
825.21	16476.56
825.39	16363.68
825.58	16501.63
825.76	16441.67
825.94	16472.63
826.12	16462.56
826.31	16350.00
826.49	16428.89
826.67	16442.49
826.85	16373.59
827.03	16423.56
827.22	16518.42
827.40	16400.87
827.58	16408.08
827.76	16476.65
827.95	16398.33
828.13	16391.29
828.31	16438.31
828.49	16533.66
828.67	16455.92
828.86	16380.80
829.04	16448.30
829.22	16409.72
829.40	16437.82
829.58	16398.74
829.77	16469.93
829.95	16482.87
830.13	16482.79
830.31	16490.49
830.49	16520.88
830.68	16513.92
830.86	16395.38
831.04	16389.73
831.22	16410.21
831.40	16387.27
831.59	16455.92
831.77	16389.81
831.95	16499.99
832.13	16411.19
832.31	16559.88
832.50	16525.96
832.68	16448.22
832.86	16516.62
833.04	16658.18
833.22	16472.71
833.40	16747.31
833.59	16564.38
833.77	16675.13
833.95	16414.55
834.13	16822.67
834.31	16558.81
834.49	16670.47
834.67	16666.37
834.86	16669.40
835.04	16537.35
835.22	16666.37
835.40	16629.42
835.58	16597.89
835.76	16586.66
835.95	16573.64
836.13	16565.94
836.31	16437.65
836.49	16622.22
836.67	16665.55
836.85	16631.14
837.03	16597.07
837.21	16651.71
837.40	16577.90
837.58	16442.65
837.76	16624.35
837.94	16565.12
838.12	16729.04
838.30	16590.84
838.48	16622.95
838.66	16625.08
838.85	16627.70
839.03	16627.62
839.21	16605.42
839.39	16552.99
839.57	16680.21
839.75	16598.95
839.93	16620.58
840.11	16690.62
840.29	16612.55
840.47	16611.57
840.66	16650.81
840.84	16685.21
841.02	16648.10
841.20	16648.92
841.38	16612.30
841.56	16636.47
841.74	16740.59
841.92	16586.74
842.10	16554.80
842.28	16570.93
842.46	16430.12
842.65	16463.46
842.83	16545.46
843.01	16635.16
843.19	16386.54
843.37	16523.67
843.55	16431.92
843.73	16600.92
843.91	16538.66
844.09	16484.59
844.27	16617.05
844.45	16480.74
844.63	16459.93
844.81	16488.36
844.99	16559.88
845.17	16470.50
845.35	16580.03
845.54	16467.47
845.72	16483.94
845.90	16479.92
846.08	16512.28
846.26	16391.04
846.44	16541.03
846.62	16342.22
846.80	16436.59
846.98	16390.39
847.16	16430.36
847.34	16477.79
847.52	16468.21
847.70	16405.46
847.88	16459.52
848.06	16348.44
848.24	16453.30
848.42	16381.54
848.60	16273.73
848.78	16372.53
848.96	16345.41
849.14	16377.93
849.32	16451.66
849.50	16347.21
849.68	16437.49
849.86	16440.44
850.04	16360.08
850.22	16328.37
850.40	16213.69
850.58	16324.77
850.76	16574.46
850.94	16105.80
851.12	16305.27
851.30	16204.59
851.48	16304.62
851.66	16141.60
851.84	16141.35
852.02	16197.47
852.20	16286.59
852.38	16142.91
852.56	16251.37
852.74	16232.86
852.92	16209.67
853.10	16155.85
853.28	16210.57
853.46	15940.90
853.64	16178.05
853.82	16032.40
854.00	16085.98
854.18	16024.95
854.36	15989.56
854.54	16118.25
854.72	15949.09
854.90	15918.86
855.07	16046.41
855.25	16026.17
855.43	15983.09
855.61	15882.08
855.79	15878.64
855.97	15935.00
856.15	15877.33
856.33	15831.37
856.51	15939.10
856.69	15787.05
856.87	15872.82
857.05	15820.97
857.23	15890.11
857.41	15731.59
857.59	15852.02
857.77	15824.82
857.94	15831.54
858.12	15896.58
858.30	15822.69
858.48	15765.92
858.66	15765.75
858.84	15879.21
859.02	15669.66
859.20	15656.88
859.38	15790.33
859.56	15752.81
859.74	15701.45
859.92	15738.31
860.09	15600.77
860.27	15691.95
860.45	15583.40
860.63	15600.28
860.81	15672.37
860.99	15530.65
861.17	15454.14
861.35	15177.74
861.53	15082.96
861.70	15065.76
861.88	15409.24
862.06	15396.63
862.24	15153.99
862.42	15116.06
862.60	15364.11
862.78	15359.60
862.96	15434.07
863.14	15306.93
863.31	15319.05
863.49	15276.62
863.67	15285.22
863.85	15233.69
864.03	15414.49
864.21	15288.33
864.39	15314.96
864.56	15176.92
864.74	15252.21
864.92	15147.27
865.10	15089.76
865.28	15075.18
865.46	15209.44
865.64	14848.84
865.81	15022.42
865.99	14804.93
866.17	14990.23
866.35	14856.87
866.53	14856.21
866.71	14868.25
866.88	14891.35
867.06	14754.88
867.24	14852.12
867.42	14738.33
867.60	14811.65
867.78	14741.93
867.95	14834.26
868.13	14687.38
868.31	14821.56
868.49	14756.84
868.67	14734.97
868.84	14609.47
869.02	14674.92
869.20	14425.32
869.38	14595.87
869.56	14531.81
869.73	14430.32
869.91	14538.61
870.09	14483.40
870.27	14373.38
870.45	14457.84
870.62	14319.97
870.80	14485.94
870.98	14391.73
871.16	14394.35
871.34	14364.94
871.51	14369.29
871.69	14198.24
871.87	14295.23
872.05	14260.83
872.23	14313.83
872.40	14159.74
872.58	14278.85
872.76	14108.13
872.94	14174.57
873.11	14138.03
873.29	14016.46
873.47	14049.80
873.65	13971.32
873.83	13871.22
874.00	13883.34
874.18	13882.20
874.36	13807.08
874.54	13875.64
874.71	13768.58
874.89	13679.04
875.07	13781.68
875.25	13765.87
875.42	13762.51
875.60	13744.82
875.78	13803.56
875.96	13683.38
876.13	13766.04
876.31	13614.08
876.49	13607.03
876.66	13487.51
876.84	13708.53
877.02	13556.65
877.20	13572.71
877.37	13577.79
877.55	13594.50
877.73	13551.57
877.91	13501.68
878.08	13535.76
878.26	13456.55
878.44	13478.42
878.61	13489.97
878.79	13404.28
878.97	13423.94
879.15	13505.21
879.32	13460.15
879.50	13455.32
879.68	13536.42
879.85	13381.76
880.03	13521.92
880.21	13351.69
880.38	13494.80
880.56	13344.24
880.74	13498.65
880.92	13302.21
881.09	13435.99
881.27	13323.76
881.45	13391.59
881.62	13292.14
881.80	13285.34
881.98	13245.52
882.15	13354.56
882.33	13260.02
882.51	13311.88
882.68	13215.46
882.86	13377.91
883.04	13171.72
883.21	13202.19
883.39	13296.15
883.57	13159.02
883.74	13203.58
883.92	13186.71
884.10	13167.21
884.27	13103.89
884.45	13056.29
884.63	13164.51
884.80	13108.72
884.98	13110.77
885.16	13078.25
885.33	13130.51
885.51	13094.55
885.69	13098.56
885.86	13070.05
886.04	13165.00
886.21	12945.54
886.39	13128.14
886.57	12915.80
886.74	13083.00
886.92	13073.99
887.10	13108.31
887.27	13070.96
887.45	13047.77
887.62	13003.70
887.80	13039.01
887.98	13109.95
888.15	13106.75
888.33	12988.38
888.51	13110.52
888.68	12995.51
888.86	13044.82
889.03	12934.72
889.21	12993.30
889.39	13052.61
889.56	13011.48
889.74	12998.05
889.91	12980.35
890.09	12964.79
890.27	12978.47
890.44	12951.19
890.62	12946.60
890.79	12902.12
890.97	12922.68
891.14	12852.15
891.32	12892.37
891.50	12830.36
891.67	12884.51
891.85	12837.57
892.02	12815.21
892.20	12893.85
892.38	12852.31
892.55	12776.70
892.73	12819.06
892.90	12669.72
893.08	12735.50
893.25	12710.27
893.43	12829.38
893.60	12694.13
893.78	12770.31
893.96	12687.08
894.13	12762.37
894.31	12874.51
894.48	12714.77
894.66	12744.10
894.83	12775.23
895.01	12748.61
895.18	12766.14
895.36	12692.57
895.53	12742.71
895.71	12664.23
895.89	12701.58
896.06	12582.72
896.24	12633.84
896.41	12609.43
896.59	12654.56
896.76	12472.38
896.94	12602.30
897.11	12570.27
897.29	12636.21
897.46	12520.87
897.64	12619.50
897.81	12561.99
897.99	12475.98
898.16	12649.07
898.34	12581.08
898.51	12573.95
898.69	12496.05
898.86	12497.11
899.04	12544.30
899.21	12406.19
899.39	12470.98
899.56	12356.13
899.74	12509.16
899.91	12375.22
900.09	12299.20
900.26	12362.60
900.44	12220.07
900.61	12277.41
900.79	12410.44
900.96	12291.66
901.14	12255.04
901.31	12239.32
901.49	12189.92
901.66	12275.69
901.84	12204.58
902.01	12153.88
902.19	12130.77
902.36	12045.33
902.54	12073.84
902.71	12042.63
902.88	12063.52
903.06	11862.74
903.23	12018.87
903.41	11884.53
903.58	11870.60
903.76	11774.92
903.93	11814.73
904.11	11857.33
904.28	11757.80
904.45	11719.46
904.63	11703.24
904.80	11606.74
904.98	11667.28
905.15	11535.06
905.33	11632.63
905.50	11566.11
905.68	11579.22
905.85	11551.04
906.02	11545.22
906.20	11587.57
906.37	11490.17
906.55	11420.62
906.72	11544.15
906.90	11399.24
907.07	11366.88
907.24	11406.61
907.42	11327.72
907.59	11274.31
907.77	11273.99
907.94	11233.52
908.11	11215.74
908.29	11219.02
908.46	11187.73
908.64	11130.30
908.81	11125.96
908.98	11038.47
909.16	11165.69
909.33	11080.08
909.51	11022.91
909.68	10954.50
909.85	10952.13
910.03	10948.28
910.20	10829.09
910.37	10801.89
910.55	10813.93
910.72	10729.06
910.90	10719.56
911.07	10743.73
911.24	10664.26
911.42	10740.20
911.59	10624.45
911.76	10625.68
911.94	10618.06
912.11	10603.15
912.29	10578.58
912.46	10525.49
912.63	10539.17
912.81	10450.37
912.98	10535.08
913.15	10392.87
913.33	10455.95
913.50	10420.88
913.67	10368.13
913.85	10316.11
914.02	10280.72
914.19	10263.27
914.37	10185.78
914.54	10205.03
914.71	10181.60
914.89	10140.64
915.06	10110.99
915.23	10107.63
915.41	10052.58
915.58	10018.91
915.75	9993.68
915.93	9963.94
916.10	9975.66
916.27	9931.99
916.45	9928.80
916.62	9853.60
916.79	9915.04
916.97	9817.31
917.14	9837.62
917.31	9754.07
917.49	9770.78
917.66	9777.25
917.83	9693.53
918.00	9678.37
918.18	9662.73
918.35	9607.27
918.52	9682.22
918.70	9557.21
918.87	9558.77
919.04	9564.42
919.21	9516.09
919.39	9452.77
919.56	9494.14
919.73	9397.39
919.91	9435.89
920.08	9388.46
920.25	9342.59
920.42	9418.53
920.60	9296.06
920.77	9294.26
920.94	9307.53
921.11	9213.98
921.29	9293.52
921.46	9136.32
921.63	9241.17
921.81	9137.05
921.98	9107.56
922.15	9093.72
922.32	9087.00
922.50	9043.01
922.67	9040.55
922.84	8940.94
923.01	8962.24
923.19	8961.75
923.36	8949.79
923.53	8780.95
923.70	8880.65
923.87	8858.69
924.05	8844.36
924.22	8760.39
924.39	8845.26
924.56	8750.56
924.74	8761.78
924.91	8698.62
925.08	8696.41
925.25	8678.96
925.43	8635.87
925.60	8536.75
925.77	8637.43
925.94	8543.80
926.11	8534.38
926.29	8522.17
926.46	8494.56
926.63	8441.65
926.80	8464.50
926.97	8346.54
927.15	8400.93
927.32	8319.75
927.49	8258.88
927.66	8319.01
927.83	8293.45
928.01	8238.57
928.18	8266.91
928.35	8191.79
928.52	8245.86
928.69	8163.69
928.87	8193.10
929.04	8150.67
929.21	8166.48
929.38	8111.02
929.55	8137.73
929.72	8059.99
929.90	8071.86
930.07	8051.06
930.24	8012.72
930.41	8029.35
930.58	8014.11
930.75	8040.90
930.93	7972.58
931.10	7968.81
931.27	7916.46
931.44	7928.10
931.61	7881.65
931.78	7900.08
931.95	7831.60
932.13	7803.83
932.30	7867.89
932.47	7740.34
932.64	7771.80
932.81	7742.47
932.98	7735.10
933.15	7698.07
933.33	7706.42
933.50	7724.77
933.67	7649.74
933.84	7661.86
934.01	7676.20
934.18	7661.45
934.35	7654.73
934.52	7644.82
934.70	7626.23
934.87	7601.32
935.04	7588.22
935.21	7582.65
935.38	7527.68
935.55	7496.38
935.72	7532.10
935.89	7464.11
936.06	7457.80
936.24	7391.36
936.41	7469.27
936.58	7393.58
936.75	7373.83
936.92	7392.18
937.09	7373.83
937.26	7295.52
937.43	7324.03
937.60	7322.72
937.77	7280.86
937.94	7252.02
938.12	7283.48
938.29	7230.72
938.46	7271.27
938.63	7152.16
938.80	7190.75
938.97	7174.77
939.14	7169.61
939.31	7166.99
939.48	7141.92
939.65	7074.67
939.82	7090.15
939.99	7088.43
940.16	7053.78
940.33	7050.09
940.50	7017.49
940.67	7003.48
940.85	7040.67
941.02	7005.53
941.19	6998.97
941.36	6930.16
941.53	6968.91
941.70	6944.33
941.87	6910.58
942.04	6910.50
942.21	6881.91
942.38	6873.23
942.55	6832.68
942.72	6871.02
942.89	6847.83
943.06	6806.63
943.23	6779.02
943.40	6757.40
943.57	6769.11
943.74	6740.85
943.91	6734.62
944.08	6742.65
944.25	6760.10
944.42	6668.51
944.59	6662.04
944.76	6720.12
944.93	6662.86
945.10	6660.08
945.27	6652.21
945.44	6573.57
945.61	6626.16
945.78	6562.76
945.95	6584.14
946.12	6554.48
946.29	6587.09
946.46	6588.32
946.63	6561.53
946.80	6542.69
946.97	6532.12
947.14	6487.15
947.31	6541.70
947.48	6485.02
947.65	6454.71
947.82	6477.07
947.99	6481.98
948.16	6419.40
948.33	6486.16
948.50	6382.13
948.67	6380.73
948.84	6392.61
949.01	6357.30
949.18	6354.93
949.35	6345.75
949.52	6308.89
949.68	6319.13
949.85	6302.42
950.02	6306.68
950.19	6267.36
950.36	6264.33
950.53	6246.80
950.70	6265.97
950.87	6232.54
951.04	6250.07
951.21	6203.46
951.38	6176.67
951.55	6207.88
951.72	6183.64
951.89	6179.70
952.06	6197.24
952.23	6159.55
952.39	6177.82
952.56	6099.51
952.73	6135.63
952.90	6087.63
953.07	6115.23
953.24	6063.38
953.41	6071.57
953.58	6019.96
953.75	6050.44
953.92	6018.57
954.09	5978.84
954.25	5967.54
954.42	6000.96
954.59	5974.66
954.76	5958.77
954.93	5941.81
955.10	5963.85
955.27	5910.19
955.44	5934.19
955.61	5895.61
955.77	5933.21
955.94	5908.80
956.11	5906.10
956.28	5869.23
956.45	5872.43
956.62	5880.37
956.79	5879.47
956.96	5853.59
957.12	5858.67
957.29	5862.19
957.46	5834.58
957.63	5831.88
957.80	5807.71
957.97	5808.37
958.14	5847.44
958.30	5766.18
958.47	5770.93
958.64	5750.53
958.81	5802.63
958.98	5740.13
959.15	5754.87
959.32	5771.91
959.48	5752.91
959.65	5675.66
959.82	5734.80
959.99	5666.57
960.16	5696.79
960.33	5670.58
960.49	5668.04
960.66	5628.96
960.83	5617.09
961.00	5632.49
961.17	5648.46
961.33	5637.40
961.50	5623.97
961.67	5604.88
961.84	5591.61
962.01	5555.98
962.18	5604.64
962.34	5560.40
962.51	5581.21
962.68	5537.22
962.85	5585.47
963.02	5519.93
963.18	5575.88
963.35	5510.10
963.52	5522.39
963.69	5529.52
963.86	5533.94
964.02	5491.34
964.19	5495.11
964.36	5441.70
964.53	5492.57
964.69	5401.23
964.86	5482.82
965.03	5409.10
965.20	5455.62
965.37	5371.58
965.53	5387.55
965.70	5376.66
965.87	5371.17
966.04	5374.44
966.20	5359.29
966.37	5354.62
966.54	5298.50
966.71	5347.33
966.87	5311.28
967.04	5303.42
967.21	5309.48
967.38	5296.21
967.54	5314.97
967.71	5292.52
967.88	5274.26
968.05	5271.14
968.21	5251.57
968.38	5218.72
968.55	5261.15
968.72	5214.54
968.88	5202.50
969.05	5226.74
969.22	5191.11
969.39	5177.92
969.55	5197.66
969.72	5159.73
969.89	5183.00
970.05	5166.45
970.22	5174.40
970.39	5153.18
970.56	5157.69
970.72	5124.84
970.89	5169.89
971.06	5120.25
971.22	5120.33
971.39	5127.70
971.56	5139.75
971.73	5071.02
971.89	5115.17
972.06	5093.87
972.23	5101.08
972.39	5076.01
972.56	5107.63
972.73	5046.69
972.89	5078.80
973.06	5072.57
973.23	5052.18
973.39	5038.90
973.56	5058.97
973.73	5033.33
973.89	5056.27
974.06	5020.47
974.23	5037.76
974.39	5019.41
974.56	4997.37
974.73	4985.00
974.89	4962.72
975.06	4981.07
975.23	4984.10
975.39	4950.84
975.56	4948.79
975.73	4949.20
975.89	4930.77
976.06	4917.75
976.23	4891.04
976.39	4900.38
976.56	4889.24
976.73	4908.41
976.89	4919.63
977.06	4872.28
977.23	4867.61
977.39	4853.69
977.56	4885.63
977.72	4810.92
977.89	4884.82
978.06	4831.90
978.22	4820.26
978.39	4812.89
978.56	4828.78
978.72	4802.81
978.89	4831.49
979.05	4804.13
979.22	4816.17
979.39	4803.88
979.55	4792.00
979.72	4763.66
979.88	4777.50
980.05	4764.64
980.22	4796.02
980.38	4767.18
980.55	4746.62
980.71	4739.74
980.88	4738.84
981.05	4739.90
981.21	4711.39
981.38	4710.66
981.54	4748.17
981.71	4701.64
981.88	4729.50
982.04	4689.85
982.21	4700.50
982.37	4673.71
982.54	4700.58
982.70	4674.53
982.87	4698.61
983.04	4619.32
983.20	4708.69
983.37	4631.93
983.53	4668.22
983.70	4643.32
983.86	4647.99
984.03	4638.40
984.20	4639.88
984.36	4659.29
984.53	4622.51
984.69	4616.29
984.86	4612.35
985.02	4596.46
985.19	4614.73
985.35	4585.89
985.52	4592.53
985.68	4584.83
985.85	4588.27
986.02	4571.80
986.18	4564.27
986.35	4561.32
986.51	4557.63
986.68	4539.45
986.84	4531.83
987.01	4544.03
987.17	4557.55
987.34	4538.95
987.50	4542.39
987.67	4510.77
987.83	4537.15
988.00	4523.06
988.16	4495.05
988.33	4515.69
988.49	4521.51
988.66	4461.79
988.82	4498.90
988.99	4484.64
989.15	4509.14
989.32	4450.07
989.48	4464.82
989.65	4438.11
989.81	4456.95
989.98	4423.69
990.14	4428.12
990.31	4428.61
990.47	4423.78
990.64	4411.32
990.80	4391.09
990.97	4387.81
991.13	4399.69
991.30	4389.45
991.46	4398.38
991.63	4376.10
991.79	4374.13
991.95	4326.95
992.12	4363.24
992.28	4352.34
992.45	4347.18
992.61	4339.24
992.78	4342.02
992.94	4308.11
993.11	4341.53
993.27	4322.44
993.44	4326.13
993.60	4332.52
993.76	4305.49
993.93	4321.05
994.09	4309.83
994.26	4290.17
994.42	4300.08
994.59	4292.30
994.75	4314.33
994.91	4279.60
995.08	4253.47
995.24	4256.83
995.41	4251.34
995.57	4268.95
995.74	4243.47
995.90	4238.80
996.06	4243.80
996.23	4228.40
996.39	4216.36
996.56	4198.25
996.72	4219.80
996.88	4218.41
997.05	4223.73
997.21	4197.03
997.38	4212.02
997.54	4180.97
997.70	4203.82
997.87	4211.85
998.03	4197.19
998.20	4166.39
998.36	4179.09
998.52	4166.88
998.69	4184.90
998.85	4131.65
999.02	4146.32
999.18	4138.13
999.34	4154.67
999.51	4151.40
999.67	4147.63
999.83	4131.82
1000.00	4146.56
1000.16	4116.91
1000.33	4096.35
1000.49	4106.67
1000.65	4145.66
1000.82	4150.99
1000.98	4114.61
1001.14	4079.55
1001.31	4118.96
1001.47	4115.60
1001.63	4111.17
1001.80	4067.35
1001.96	4064.81
1002.12	4087.58
1002.29	4092.50
1002.45	4082.26
1002.61	4067.51
1002.78	4065.38
1002.94	4058.66
1003.10	4033.02
1003.27	4045.48
1003.43	4053.09
1003.59	4030.65
1003.76	4044.57
1003.92	4027.54
1004.08	4011.81
1004.25	4024.09
1004.41	4019.51
1004.57	4011.97
1004.74	3999.36
1004.90	4042.12
1005.06	3988.13
1005.23	4004.84
1005.39	3999.60
1005.55	4005.66
1005.71	3993.21
1005.88	3974.45
1006.04	3980.84
1006.20	3986.25
1006.37	3936.28
1006.53	3954.71
1006.69	3936.61
1006.85	3989.85
1007.02	3949.30
1007.18	3961.18
1007.34	3950.86
1007.51	3967.33
1007.67	3936.69
1007.83	3946.52
1007.99	3925.55
1008.16	3947.34
1008.32	3913.91
1008.48	3940.62
1008.64	3930.87
1008.81	3946.76
1008.97	3921.20
1009.13	3923.25
1009.29	3916.04
1009.46	3911.70
1009.62	3919.89
1009.78	3921.20
1009.95	3896.87
1010.11	3906.46
1010.27	3871.48
1010.43	3888.03
1010.59	3878.69
1010.76	3860.50
1010.92	3872.46
1011.08	3885.73
1011.24	3853.70
1011.41	3897.78
1011.57	3862.63
1011.73	3842.48
1011.89	3832.65
1012.06	3847.40
1012.22	3825.52
1012.38	3822.90
1012.54	3812.25
1012.70	3834.04
1012.87	3826.18
1013.03	3828.72
1013.19	3819.95
1013.35	3820.61
1013.51	3787.35
1013.68	3823.97
1013.84	3791.77
1014.00	3841.50
1014.16	3795.05
1014.32	3819.54
1014.49	3801.69
1014.65	3834.13
1014.81	3770.47
1014.97	3781.29
1015.13	3765.48
1015.30	3790.46
1015.46	3779.16
1015.62	3759.42
1015.78	3769.33
1015.94	3757.37
1016.10	3758.51
1016.27	3748.60
1016.43	3745.82
1016.59	3769.82
1016.75	3735.99
1016.91	3767.61
1017.07	3718.54
1017.24	3754.75
1017.40	3717.64
1017.56	3718.05
1017.72	3711.98
1017.88	3735.25
1018.04	3708.46
1018.21	3734.10
1018.37	3722.47
1018.53	3704.78
1018.69	3695.19
1018.85	3682.25
1019.01	3696.67
1019.17	3704.86
1019.34	3681.10
1019.50	3692.73
1019.66	3665.29
1019.82	3681.18
1019.98	3650.05
1020.14	3696.99
1020.30	3670.45
1020.46	3682.41
1020.63	3651.28
1020.79	3668.90
1020.95	3668.49
1021.11	3658.00
1021.27	3658.49
1021.43	3667.26
1021.59	3678.56
1021.75	3668.98
1021.91	3634.57
1022.07	3641.53
1022.24	3621.22
1022.40	3635.31
1022.56	3623.02
1022.72	3655.54
1022.88	3609.50
1023.04	3634.57
1023.20	3617.12
1023.36	3616.96
1023.52	3624.17
1023.68	3609.75
1023.84	3610.24
1024.01	3607.78
1024.17	3599.51
1024.33	3599.43
1024.49	3596.89
1024.65	3590.50
1024.81	3580.10
1024.97	3591.73
1025.13	3593.69
1025.29	3604.59
1025.45	3572.23
1025.61	3609.01
1025.77	3564.53
1025.93	3576.65
1026.09	3562.97
1026.25	3588.12
1026.41	3562.73
1026.57	3573.71
1026.73	3576.98
1026.90	3575.67
1027.06	3545.20
1027.22	3565.43
1027.38	3556.26
1027.54	3553.14
1027.70	3564.04
1027.86	3550.85
1028.02	3562.73
1028.18	3553.96
1028.34	3549.54
1028.50	3552.73
1028.66	3538.64
1028.82	3575.67
1028.98	3524.31
1029.14	3523.24
1029.30	3545.20
1029.46	3540.53
1029.62	3538.23
1029.78	3532.83
1029.94	3512.02
1030.10	3525.70
1030.26	3505.30
1030.42	3500.06
1030.58	3504.81
1030.74	3518.66
1030.90	3490.97
1031.06	3504.24
1031.22	3481.96
1031.38	3495.47
1031.54	3494.57
1031.70	3509.81
1031.86	3494.16
1032.02	3503.99
1032.18	3474.26
1032.34	3479.50
1032.50	3490.64
1032.66	3514.81
1032.82	3461.56
1032.98	3486.30
1033.14	3467.70
1033.30	3484.25
1033.45	3457.63
1033.61	3486.54
1033.77	3457.14
1033.93	3472.70
1034.09	3459.02
1034.25	3466.06
1034.41	3456.73
1034.57	3450.99
1034.73	3465.00
1034.89	3473.27
1035.05	3458.28
1035.21	3477.61
1035.37	3439.93
1035.53	3440.34
1035.69	3438.79
1035.85	3451.65
1036.01	3435.59
1036.16	3449.68
1036.32	3448.70
1036.48	3437.23
1036.64	3419.70
1036.80	3448.04
1036.96	3433.21
1037.12	3421.58
1037.28	3434.28
1037.44	3422.89
1037.60	3435.84
1037.76	3429.20
1037.91	3422.32
1038.07	3427.32
1038.23	3427.07
1038.39	3415.85
1038.55	3422.16
1038.71	3422.07
1038.87	3401.18
1039.03	3413.47
1039.19	3412.41
1039.35	3424.94
1039.50	3417.65
1039.66	3401.84
1039.82	3386.19
1039.98	3413.39
1040.14	3398.65
1040.30	3409.13
1040.46	3392.01
1040.62	3393.48
1040.77	3392.58
1040.93	3422.40
1041.09	3393.24
1041.25	3391.27
1041.41	3386.93
1041.57	3396.19
1041.73	3396.19
1041.88	3396.19

