SpectraSuite Data File
++++++++++++++++++++++++++++++++++++
Date: Tue Sep 20 11:56:49 EDT 2022
User: Laboratoire
Dark Spectrum Present: No
Reference Spectrum Present: No
Number of Sampled Component Spectra: 1
Spectrometers: FLMT00174
Integration Time (usec): 15000 (FLMT00174)
Spectra Averaged: 25 (FLMT00174)
Boxcar Smoothing: 0 (FLMT00174)
Correct for Electrical Dark: No (FLMT00174)
Strobe/Lamp Enabled: No (FLMT00174)
Correct for Detector Non-linearity: No (FLMT00174)
Correct for Stray Light: No (FLMT00174)
Number of Pixels in Processed Spectrum: 3648
>>>>>Begin Processed Spectral Data<<<<<
345.74	3153.71
345.96	3153.71
346.18	3153.71
346.39	3159.93
346.61	3205.89
346.83	3206.05
347.05	3206.63
347.27	3206.14
347.49	3208.76
347.71	3233.41
347.93	3212.69
348.15	3213.10
348.36	3212.03
348.58	3227.19
348.80	3212.44
349.02	3210.56
349.24	3221.05
349.46	3305.09
349.68	3310.42
349.90	3318.61
350.11	3303.13
350.33	3318.61
350.55	3296.25
350.77	3319.51
350.99	3288.22
351.21	3314.60
351.43	3302.06
351.65	3319.10
351.86	3302.47
352.08	3319.92
352.30	3292.23
352.52	3326.31
352.74	3298.87
352.96	3287.48
353.18	3333.68
353.39	3316.64
353.61	3300.83
353.83	3328.69
354.05	3332.86
354.27	3309.44
354.49	3316.64
354.70	3323.20
354.92	3288.38
355.14	3284.61
355.36	3301.08
355.58	3310.01
355.80	3327.13
356.02	3304.77
356.23	3324.18
356.45	3318.94
356.67	3319.02
356.89	3339.34
357.11	3307.72
357.33	3327.46
357.54	3302.55
357.76	3298.38
357.98	3323.44
358.20	3324.34
358.42	3288.46
358.63	3312.55
358.85	3313.94
359.07	3325.16
359.29	3307.47
359.51	3289.86
359.73	3298.13
359.94	3306.65
360.16	3299.69
360.38	3312.14
360.60	3306.32
360.82	3307.14
361.03	3330.41
361.25	3325.90
361.47	3318.36
361.69	3330.57
361.91	3290.76
362.12	3324.84
362.34	3291.58
362.56	3329.51
362.78	3331.39
363.00	3318.53
363.21	3301.08
363.43	3331.06
363.65	3297.48
363.87	3327.05
364.09	3295.43
364.30	3319.51
364.52	3309.68
364.74	3334.42
364.96	3306.90
365.17	3319.43
365.39	3303.78
365.61	3315.99
365.83	3298.13
366.05	3307.63
366.26	3308.12
366.48	3300.83
366.70	3332.70
366.92	3336.30
367.13	3322.62
367.35	3309.44
367.57	3310.99
367.79	3311.57
368.01	3330.08
368.22	3339.50
368.44	3320.90
368.66	3331.72
368.88	3329.92
369.09	3310.42
369.31	3325.90
369.53	3320.49
369.75	3323.77
369.96	3331.39
370.18	3320.00
370.40	3344.50
370.62	3315.09
370.83	3304.52
371.05	3344.41
371.27	3346.79
371.49	3313.29
371.70	3341.79
371.92	3330.49
372.14	3337.04
372.36	3306.16
372.57	3341.88
372.79	3321.31
373.01	3350.97
373.22	3322.30
373.44	3337.86
373.66	3337.45
373.88	3346.54
374.09	3315.83
374.31	3328.77
374.53	3312.71
374.75	3341.55
374.96	3334.26
375.18	3344.82
375.40	3322.71
375.61	3324.51
375.83	3340.07
376.05	3323.03
376.27	3359.08
376.48	3334.09
376.70	3355.80
376.92	3323.28
377.13	3327.29
377.35	3319.92
377.57	3332.78
377.79	3329.92
378.00	3322.54
378.22	3348.02
378.44	3318.94
378.65	3359.98
378.87	3324.51
379.09	3352.28
379.30	3351.71
379.52	3324.43
379.74	3336.47
379.96	3347.36
380.17	3320.66
380.39	3318.45
380.61	3325.25
380.82	3354.41
381.04	3353.92
381.26	3358.75
381.47	3350.64
381.69	3351.87
381.91	3327.95
382.12	3363.42
382.34	3365.22
382.56	3347.36
382.77	3338.84
382.99	3352.28
383.21	3355.56
383.42	3372.51
383.64	3354.16
383.86	3358.59
384.07	3375.95
384.29	3349.08
384.51	3360.23
384.72	3380.38
384.94	3374.56
385.16	3383.57
385.37	3358.67
385.59	3370.14
385.81	3392.34
386.02	3382.51
386.24	3394.55
386.46	3367.93
386.67	3402.41
386.89	3413.72
387.11	3407.74
387.32	3413.47
387.54	3393.24
387.76	3400.61
387.97	3402.74
388.19	3429.20
388.40	3400.86
388.62	3390.21
388.84	3413.23
389.05	3421.91
389.27	3416.01
389.49	3431.41
389.70	3402.50
389.92	3415.60
390.14	3395.29
390.35	3428.14
390.57	3400.53
390.78	3416.42
391.00	3396.02
391.22	3413.23
391.43	3404.13
391.65	3403.40
391.86	3450.75
392.08	3446.40
392.30	3414.05
392.51	3429.36
392.73	3465.74
392.95	3435.92
393.16	3398.24
393.38	3458.86
393.59	3423.14
393.81	3439.03
394.03	3433.79
394.24	3440.59
394.46	3432.64
394.67	3442.64
394.89	3425.92
395.11	3443.62
395.32	3468.77
395.54	3470.08
395.75	3452.38
395.97	3446.08
396.19	3441.08
396.40	3452.55
396.62	3465.82
396.83	3462.38
397.05	3444.36
397.26	3466.88
397.48	3468.60
397.70	3477.37
397.91	3480.40
398.13	3472.04
398.34	3478.27
398.56	3472.21
398.78	3474.67
398.99	3523.24
399.21	3484.82
399.42	3505.14
399.64	3482.61
399.85	3517.10
400.07	3497.85
400.29	3538.64
400.50	3515.38
400.72	3517.84
400.93	3545.12
401.15	3534.79
401.36	3537.99
401.58	3542.49
401.79	3567.23
402.01	3559.78
402.23	3540.20
402.44	3596.81
402.66	3592.87
402.87	3593.61
403.09	3578.78
403.30	3607.70
403.52	3589.68
403.73	3611.06
403.95	3606.39
404.16	3623.92
404.38	3635.23
404.60	3645.22
404.81	3667.75
405.03	3662.91
405.24	3683.97
405.46	3677.66
405.67	3691.34
405.89	3710.51
406.10	3692.90
406.32	3699.78
406.53	3713.21
406.75	3734.68
406.96	3737.13
407.18	3737.05
407.39	3710.10
407.61	3755.32
407.82	3739.26
408.04	3785.06
408.25	3766.46
408.47	3795.79
408.68	3791.69
408.90	3788.25
409.12	3806.35
409.33	3821.02
409.55	3798.00
409.76	3814.96
409.98	3800.46
410.19	3818.15
410.41	3814.55
410.62	3827.74
410.84	3823.97
411.05	3831.59
411.27	3844.20
411.48	3834.29
411.70	3857.39
411.91	3846.99
412.12	3822.00
412.34	3838.38
412.55	3850.92
412.77	3833.72
412.98	3864.44
413.20	3840.19
413.41	3839.45
413.63	3836.75
413.84	3840.43
414.06	3847.56
414.27	3854.36
414.49	3865.17
414.70	3854.20
414.92	3867.55
415.13	3852.39
415.35	3844.53
415.56	3858.78
415.78	3863.29
415.99	3861.73
416.21	3874.59
416.42	3896.79
416.63	3893.60
416.85	3868.69
417.06	3878.69
417.28	3874.27
417.49	3890.89
417.71	3894.58
417.92	3869.76
418.14	3888.03
418.35	3893.93
418.57	3909.24
418.78	3882.21
418.99	3894.01
419.21	3930.13
419.42	3900.40
419.64	3894.50
419.85	3913.75
420.07	3965.69
420.28	3928.58
420.50	3942.01
420.71	3944.22
420.92	3961.84
421.14	3977.07
421.35	3953.15
421.57	3958.15
421.78	3992.64
422.00	3978.96
422.21	4000.67
422.42	4007.63
422.64	4023.11
422.85	4040.64
423.07	4050.39
423.28	4053.67
423.50	4057.52
423.71	4060.63
423.92	4119.28
424.14	4081.03
424.35	4128.54
424.57	4151.15
424.78	4148.78
424.99	4159.01
425.21	4189.57
425.42	4198.66
425.64	4188.34
425.85	4227.34
426.06	4237.74
426.28	4235.12
426.49	4276.32
426.71	4264.44
426.92	4300.32
427.13	4332.44
427.35	4365.37
427.56	4370.69
427.78	4389.70
427.99	4390.27
428.20	4458.51
428.42	4463.18
428.63	4495.46
428.84	4449.91
429.06	4509.05
429.27	4574.59
429.49	4565.09
429.70	4593.51
429.91	4607.19
430.13	4643.89
430.34	4646.60
430.56	4668.80
430.77	4709.43
430.98	4713.36
431.20	4769.96
431.41	4781.60
431.62	4802.57
431.84	4783.97
432.05	4837.96
432.26	4852.78
432.48	4848.69
432.69	4914.31
432.91	4904.64
433.12	4970.26
433.33	4987.38
433.55	5010.56
433.76	5024.40
433.97	5008.18
434.19	5030.79
434.40	5091.50
434.61	5105.18
434.83	5137.62
435.04	5096.17
435.25	5139.91
435.47	5156.79
435.68	5126.88
435.89	5202.58
436.11	5166.53
436.32	5200.61
436.53	5200.12
436.75	5199.38
436.96	5209.30
437.17	5186.28
437.39	5218.72
437.60	5240.75
437.81	5235.75
438.03	5244.27
438.24	5241.57
438.45	5335.94
438.67	5249.68
438.88	5284.66
439.09	5330.04
439.31	5295.39
439.52	5304.89
439.73	5292.69
439.94	5225.60
440.16	5272.13
440.37	5272.37
440.58	5311.69
440.80	5314.48
441.01	5272.45
441.22	5359.12
441.44	5313.17
441.65	5299.16
441.86	5299.24
442.08	5294.57
442.29	5303.75
442.50	5322.43
442.71	5288.18
442.93	5331.27
443.14	5303.34
443.35	5352.90
443.57	5285.23
443.78	5317.18
443.99	5343.07
444.20	5301.70
444.42	5341.27
444.63	5308.01
444.84	5371.41
445.06	5364.86
445.27	5344.79
445.48	5302.85
445.69	5341.84
445.91	5340.20
446.12	5308.17
446.33	5340.61
446.54	5390.66
446.76	5343.81
446.97	5367.97
447.18	5361.50
447.39	5413.85
447.61	5411.06
447.82	5396.23
448.03	5402.05
448.25	5402.38
448.46	5436.21
448.67	5467.09
448.88	5413.93
449.10	5465.29
449.31	5505.10
449.52	5462.92
449.73	5501.17
449.95	5574.49
450.16	5511.74
450.37	5612.34
450.58	5690.90
450.79	5537.13
451.01	5612.99
451.22	5608.32
451.43	5653.95
451.64	5689.26
451.86	5686.96
452.07	5715.55
452.28	5730.22
452.49	5828.36
452.71	5789.53
452.92	5793.79
453.13	5844.41
453.34	5849.82
453.55	5898.07
453.77	5950.82
453.98	5940.42
454.19	5940.75
454.40	6022.67
454.62	6048.14
454.83	6028.24
455.04	6135.14
455.25	6095.16
455.46	6267.11
455.68	6185.68
455.89	6225.50
456.10	6273.99
456.31	6311.27
456.52	6333.30
456.74	6381.63
456.95	6506.64
457.16	6470.11
457.37	6550.96
457.58	6578.57
457.80	6600.85
458.01	6600.69
458.22	6858.65
458.43	6757.56
458.64	6816.62
458.86	6763.62
459.07	6868.81
459.28	6924.84
459.49	7027.15
459.70	7179.11
459.91	7168.22
460.13	7174.94
460.34	7216.96
460.55	7232.85
460.76	7399.23
460.97	7420.61
461.19	7451.33
461.40	7652.69
461.61	7584.94
461.82	7688.07
462.03	7732.88
462.24	7770.98
462.46	7808.17
462.67	7821.03
462.88	7979.13
463.09	7976.35
463.30	8128.31
463.51	8067.69
463.72	8260.85
463.94	8287.15
464.15	8327.61
464.36	8343.42
464.57	8529.79
464.78	8532.00
464.99	8659.63
465.20	8618.75
465.42	8793.98
465.63	8781.85
465.84	8810.12
466.05	8984.03
466.26	9037.44
466.47	9120.67
466.68	9052.27
466.90	9230.69
467.11	9201.44
467.32	9334.48
467.53	9432.86
467.74	9320.47
467.95	9411.89
468.16	9568.68
468.37	9640.28
468.59	9625.70
468.80	9745.96
469.01	9652.49
469.22	9818.62
469.43	9977.62
469.64	9864.00
469.85	10019.48
470.06	10052.58
470.28	10153.99
470.49	9993.43
470.70	10137.77
470.91	10320.78
471.12	10177.18
471.33	10382.46
471.54	10279.74
471.75	10315.21
471.96	10560.88
472.17	10461.02
472.39	10671.64
472.60	10468.15
472.81	10701.37
473.02	10624.86
473.23	10760.19
473.44	10790.50
473.65	10738.48
473.86	10779.93
474.07	10809.67
474.28	10828.68
474.49	11039.53
474.71	10972.77
474.92	11063.13
475.13	10976.13
475.34	11006.60
475.55	11000.87
475.76	11094.83
475.97	11269.15
476.18	11143.82
476.39	11291.11
476.60	11329.85
476.81	11267.02
477.02	11419.06
477.23	11366.72
477.44	11367.86
477.65	11440.36
477.87	11543.74
478.08	11565.45
478.29	11567.66
478.50	11728.06
478.71	11605.43
478.92	11718.07
479.13	11712.33
479.34	11723.80
479.55	11760.26
479.76	11759.27
479.97	11762.63
480.18	12065.98
480.39	11812.44
480.60	12075.56
480.81	12040.50
481.02	12086.13
481.23	12065.89
481.44	12200.49
481.65	12253.41
481.86	12415.28
482.07	12175.83
482.28	12550.12
482.49	12407.17
482.71	12434.94
482.92	12516.86
483.13	12634.33
483.34	12572.89
483.55	12616.14
483.76	12615.32
483.97	12806.60
484.18	12811.36
484.39	12859.69
484.60	12823.40
484.81	13069.48
485.02	12974.70
485.23	13164.18
485.44	13188.84
485.65	13289.76
485.86	13300.33
486.07	13461.79
486.28	13404.86
486.49	13575.17
486.70	13647.42
486.91	13760.55
487.12	13753.75
487.33	13658.72
487.54	13985.82
487.75	14025.88
487.96	14035.47
488.17	14061.03
488.38	14229.12
488.59	14248.87
488.80	14328.65
489.01	14369.29
489.22	14638.63
489.43	14603.57
489.64	14575.48
489.85	14908.56
490.06	14729.24
490.26	15005.88
490.47	14940.51
490.68	15160.87
490.89	15342.64
491.10	15199.78
491.31	15463.15
491.52	15667.12
491.73	15633.70
491.94	15694.49
492.15	15885.68
492.36	15996.44
492.57	16029.94
492.78	16064.59
492.99	16216.06
493.20	16451.99
493.41	16464.93
493.62	16635.32
493.83	16711.26
494.04	16806.45
494.25	17057.70
494.46	17170.58
494.67	17145.76
494.88	17347.28
495.08	17527.17
495.29	17602.13
495.50	17847.88
495.71	17850.83
495.92	18092.90
496.13	18168.19
496.34	18249.12
496.55	18400.43
496.76	18697.30
496.97	18558.69
497.18	18900.70
497.39	18916.19
497.60	19352.90
497.81	19083.30
498.02	19383.70
498.22	19362.64
498.43	19776.09
498.64	19868.00
498.85	20011.11
499.06	20211.90
499.27	20573.73
499.48	20177.00
499.69	20641.31
499.90	20812.69
500.11	21114.31
500.32	21370.88
500.52	21242.92
500.73	21739.27
500.94	21887.05
501.15	22011.73
501.36	22145.18
501.57	22139.12
501.78	22419.93
501.99	22713.28
502.20	22788.08
502.41	22898.34
502.61	22941.10
502.82	23316.45
503.03	23281.55
503.24	23811.81
503.45	23665.34
503.66	24091.16
503.87	24143.34
504.08	24468.23
504.28	24435.54
504.49	24592.91
504.70	24879.38
504.91	25104.66
505.12	24988.50
505.33	25492.21
505.54	25572.99
505.75	25723.55
505.95	25991.26
506.16	26015.02
506.37	25982.42
506.58	26491.95
506.79	26188.11
507.00	26720.09
507.21	26581.90
507.41	26636.70
507.62	26843.79
507.83	27315.07
508.04	27024.59
508.25	27464.49
508.46	27367.66
508.67	27766.77
508.87	27677.23
509.08	28044.56
509.29	28042.34
509.50	28196.11
509.71	28318.57
509.92	28465.21
510.12	28324.31
510.33	28553.35
510.54	28487.57
510.75	28734.97
510.96	28918.63
511.17	29187.81
511.37	29084.84
511.58	29246.71
511.79	29119.99
512.00	29107.53
512.21	29561.86
512.42	29575.78
512.62	29566.85
512.83	29810.32
513.04	29605.60
513.25	29940.65
513.46	29265.39
513.66	30100.96
513.87	29835.79
514.08	30092.36
514.29	29787.21
514.50	29785.49
514.71	29950.56
514.91	29843.33
515.12	29826.86
515.33	30070.33
515.54	29931.23
515.75	30168.22
515.95	29895.84
516.16	29900.75
516.37	30106.29
516.58	30159.78
516.78	29974.32
516.99	30122.67
517.20	30023.14
517.41	29956.95
517.62	29980.79
517.82	29817.69
518.03	30137.74
518.24	30370.97
518.45	29741.59
518.66	30050.99
518.86	29766.98
519.07	30128.24
519.28	29445.61
519.49	29901.74
519.69	29791.64
519.90	29796.80
520.11	29795.57
520.32	29622.88
520.52	29859.71
520.73	29434.23
520.94	29771.90
521.15	29666.55
521.36	29299.06
521.56	29791.88
521.77	29150.95
521.98	29529.09
522.19	29102.62
522.39	29395.56
522.60	29159.72
522.81	29156.44
523.02	28969.50
523.22	29189.53
523.43	29204.77
523.64	29013.66
523.84	29006.12
524.05	29139.24
524.26	29047.16
524.47	28852.03
524.67	28883.57
524.88	28887.50
525.09	29113.27
525.30	28768.47
525.50	28742.09
525.71	28758.07
525.92	28681.88
526.13	28723.17
526.33	28630.93
526.54	28451.69
526.75	28558.68
526.95	28712.52
527.16	28154.90
527.37	28565.64
527.58	28680.82
527.78	28606.19
527.99	28698.10
528.20	28757.33
528.40	28457.67
528.61	28399.76
528.82	28539.43
529.03	28522.39
529.23	28380.01
529.44	28507.81
529.65	28511.74
529.85	28446.04
530.06	28324.64
530.27	28389.60
530.47	28102.64
530.68	28669.19
530.89	28129.26
531.09	28569.16
531.30	28438.91
531.51	28185.62
531.72	28470.94
531.92	28407.54
532.13	28524.03
532.34	28427.69
532.54	28453.58
532.75	28513.79
532.96	28466.36
533.16	28634.37
533.37	28751.84
533.58	28524.11
533.78	28705.89
533.99	28791.16
534.20	28427.61
534.40	28668.61
534.61	28802.30
534.82	28805.34
535.02	28868.33
535.23	28859.48
535.44	29033.48
535.64	28838.43
535.85	29035.04
536.06	29015.95
536.26	28983.26
536.47	29075.18
536.68	29501.15
536.88	29089.68
537.09	29465.19
537.29	29119.74
537.50	29584.63
537.71	29404.16
537.91	29582.17
538.12	29782.79
538.33	29564.56
538.53	29732.57
538.74	29878.88
538.95	29938.27
539.15	29806.96
539.36	30078.68
539.56	30307.15
539.77	30078.93
539.98	30159.78
540.18	30380.96
540.39	30325.91
540.60	30497.20
540.80	30609.76
541.01	30764.26
541.21	30752.87
541.42	30978.31
541.63	31064.65
541.83	31203.83
542.04	31282.80
542.25	31340.07
542.45	31507.34
542.66	31624.32
542.86	31737.78
543.07	31260.36
543.28	31957.73
543.48	31924.56
543.69	32155.24
543.89	32092.08
544.10	32584.58
544.31	32375.27
544.51	32482.59
544.72	32769.55
544.92	32788.55
545.13	33152.27
545.33	33213.55
545.54	33147.52
545.75	33477.16
545.95	33428.34
546.16	33557.11
546.36	34093.68
546.57	33572.02
546.78	33128.60
546.98	33674.91
547.19	33234.03
547.39	34163.64
547.60	34488.04
547.80	35033.04
548.01	35170.50
548.22	34934.25
548.42	35216.05
548.63	35525.46
548.83	35507.85
549.04	35845.76
549.24	35695.93
549.45	36054.33
549.65	36494.89
549.86	36106.34
550.07	36345.38
550.27	36814.61
550.48	37023.51
550.68	37004.50
550.89	37179.97
551.09	37474.06
551.30	37374.04
551.50	37821.23
551.71	37794.36
551.91	37905.36
552.12	38209.85
552.33	38660.33
552.53	38451.76
552.74	38978.33
552.94	39136.85
553.15	39076.80
553.35	39464.03
553.56	39153.31
553.76	39894.68
553.97	39661.04
554.17	40004.69
554.38	40642.68
554.58	40179.26
554.79	40875.74
554.99	40422.64
555.20	40753.76
555.40	41240.36
555.61	41168.60
555.81	41023.35
556.02	41999.09
556.22	41973.86
556.43	41938.30
556.63	42080.02
556.84	42100.75
557.04	42694.09
557.25	42268.68
557.45	42723.50
557.66	42841.54
557.86	42800.01
558.07	43520.89
558.27	43356.15
558.48	43494.84
558.68	43703.24
558.89	44025.18
559.09	44107.18
559.30	44126.44
559.50	44450.92
559.71	44140.20
559.91	44883.04
560.12	44691.10
560.32	44840.77
560.53	45142.31
560.73	44947.84
560.94	45503.33
561.14	45223.57
561.35	45843.94
561.55	45559.60
561.76	45924.88
561.96	45431.65
562.17	45975.42
562.37	46270.82
562.57	46189.89
562.78	46159.25
562.98	46465.63
563.19	46622.25
563.39	46690.98
563.60	46914.13
563.80	46382.72
564.01	47125.97
564.21	46894.63
564.42	46764.30
564.62	47067.73
564.82	47541.71
565.03	46990.81
565.23	47251.72
565.44	47478.31
565.64	47217.31
565.85	47629.28
566.05	47428.42
566.25	47715.13
566.46	47384.18
566.66	47553.34
566.87	47599.30
567.07	47552.20
567.28	47706.53
567.48	47820.23
567.68	47271.54
567.89	48054.28
568.09	47568.33
568.30	47587.42
568.50	47902.81
568.71	47692.28
568.91	48057.31
569.11	47688.75
569.32	47619.94
569.52	47752.82
569.73	47228.45
569.93	47713.25
570.13	47485.10
570.34	47334.87
570.54	47767.40
570.75	47451.19
570.95	47548.76
571.15	47359.61
571.36	47852.18
571.56	47210.84
571.77	47177.99
571.97	46695.08
572.17	47320.53
572.38	47087.96
572.58	47200.35
572.79	46938.95
572.99	47065.35
573.19	46862.36
573.40	46786.09
573.60	46764.38
573.81	46633.80
574.01	46729.32
574.21	46591.86
574.42	46482.75
574.62	46157.61
574.82	46418.03
575.03	45996.80
575.23	46300.48
575.43	45846.57
575.64	45728.36
575.84	46067.25
576.05	45537.90
576.25	45762.03
576.45	45444.34
576.66	45774.48
576.86	45253.80
577.06	45538.63
577.27	45307.46
577.47	45215.05
577.67	44999.28
577.88	44442.89
578.08	44906.55
578.28	44887.05
578.49	44530.30
578.69	44598.53
578.89	44297.89
579.10	44291.91
579.30	44696.02
579.50	44189.43
579.71	43812.28
579.91	44228.59
580.11	43799.58
580.32	43693.74
580.52	43602.07
580.72	43886.91
580.93	43368.11
581.13	43314.21
581.33	43542.44
581.54	42992.52
581.74	42991.04
581.94	43045.11
582.15	43092.87
582.35	42778.14
582.55	42762.73
582.76	42406.22
582.96	42698.92
583.16	42306.45
583.37	42454.39
583.57	42055.61
583.77	42332.66
583.97	41421.72
584.18	42221.66
584.38	41973.37
584.58	41667.40
584.79	41941.66
584.99	41741.37
585.19	41561.81
585.40	41433.77
585.60	41605.22
585.80	41076.27
586.00	41320.72
586.21	41155.41
586.41	41079.22
586.61	41176.05
586.82	40954.71
587.02	40749.58
587.22	40914.48
587.42	40297.39
587.63	40819.29
587.83	40264.70
588.03	40437.96
588.23	40041.23
588.44	40293.38
588.64	40018.21
588.84	40191.30
589.05	40157.80
589.25	40238.49
589.45	40096.77
589.65	39900.08
589.86	39986.84
590.06	39926.38
590.26	39557.83
590.46	39858.88
590.67	39266.36
590.87	39732.72
591.07	39793.02
591.27	39379.82
591.48	39677.35
591.68	39058.94
591.88	39741.57
592.08	39099.57
592.29	39391.12
592.49	39193.53
592.69	39312.32
592.89	39049.19
593.10	39044.93
593.30	38963.02
593.50	39325.18
593.70	38547.61
593.90	39102.93
594.11	38899.12
594.31	38919.60
594.51	39084.09
594.71	39049.52
594.92	39024.13
595.12	38887.40
595.32	38897.73
595.52	39034.28
595.72	38467.98
595.93	38986.44
596.13	38737.00
596.33	38500.01
596.53	38920.83
596.73	38770.42
596.94	38697.76
597.14	38925.74
597.34	38721.35
597.54	38983.17
597.74	38567.18
597.95	38636.24
598.15	38644.27
598.35	38801.14
598.55	38839.40
598.75	38660.65
598.96	39071.48
599.16	38818.02
599.36	38885.19
599.56	38717.50
599.76	38730.45
599.97	38979.73
600.17	38832.60
600.37	38795.33
600.57	38360.50
600.77	39069.43
600.97	38790.41
601.18	39225.48
601.38	38955.48
601.58	39167.81
601.78	38962.77
601.98	38917.30
602.18	39250.47
602.39	39437.90
602.59	39250.63
602.79	39166.67
602.99	39176.66
603.19	39229.25
603.39	39139.96
603.60	39182.97
603.80	39256.86
604.00	39178.22
604.20	39391.53
604.40	39574.29
604.60	39359.75
604.80	39448.63
605.01	39650.89
605.21	39664.49
605.41	39644.25
605.61	39454.28
605.81	39834.22
606.01	40150.92
606.21	39734.94
606.42	40043.52
606.62	39800.80
606.82	40213.42
607.02	40092.10
607.22	40252.83
607.42	40657.50
607.62	40171.89
607.82	40511.28
608.03	40495.31
608.23	40445.50
608.43	40349.33
608.63	40852.06
608.83	40728.28
609.03	40754.74
609.23	40841.00
609.43	41001.40
609.63	40894.99
609.84	40821.26
610.04	41380.11
610.24	41424.84
610.44	41552.06
610.64	41375.03
610.84	41646.26
611.04	41932.73
611.24	41787.00
611.44	41403.13
611.64	41899.80
611.85	42091.25
612.05	42140.97
612.25	42277.04
612.45	42039.72
612.65	42456.19
612.85	42566.21
613.05	42450.87
613.25	42839.25
613.45	42780.35
613.65	42842.61
613.85	42628.39
614.05	43068.13
614.25	43199.12
614.46	42987.93
614.66	42968.84
614.86	43016.44
615.06	43219.68
615.26	43646.56
615.46	43150.78
615.66	43808.59
615.86	43974.48
616.06	43685.63
616.26	43888.63
616.46	44442.48
616.66	44126.76
616.86	44597.30
617.06	44440.76
617.26	44825.94
617.46	44662.68
617.66	44618.36
617.86	44586.08
618.07	44885.58
618.27	44967.82
618.47	45037.86
618.67	45217.68
618.87	45402.89
619.07	45354.15
619.27	45394.46
619.47	45578.36
619.67	45911.61
619.87	45621.21
620.07	46039.89
620.27	46030.88
620.47	45919.96
620.67	46194.72
620.87	46452.44
621.07	46597.76
621.27	46574.99
621.47	46333.00
621.67	46802.56
621.87	46540.66
622.07	47139.82
622.27	47134.41
622.47	46976.72
622.67	47162.43
622.87	46908.07
623.07	47492.07
623.27	47915.34
623.47	47223.46
623.67	47810.40
623.87	48231.79
624.07	48249.08
624.27	47896.75
624.47	48335.50
624.67	48132.51
624.87	48389.16
625.07	48167.57
625.27	48712.98
625.47	48385.31
625.67	48368.93
625.87	48831.11
626.07	48831.28
626.27	49305.67
626.47	49264.54
626.67	49240.46
626.87	49016.17
627.07	49554.95
627.27	49568.95
627.47	49869.10
627.67	49584.68
627.87	49707.64
628.07	50163.77
628.27	49882.37
628.47	49720.59
628.67	50331.37
628.86	50408.70
629.06	50112.89
629.26	50171.22
629.46	50666.09
629.66	50617.10
629.86	50063.58
630.06	50624.97
630.26	50614.65
630.46	51022.93
630.66	50634.06
630.86	50847.71
631.06	50943.06
631.26	50804.70
631.46	51410.00
631.66	51350.77
631.86	51141.38
632.06	51614.46
632.26	51313.50
632.45	51379.85
632.65	51374.52
632.85	51651.08
633.05	51547.05
633.25	51707.36
633.45	51368.87
633.65	51561.22
633.85	52166.35
634.05	51308.91
634.25	51720.22
634.45	51757.90
634.65	52141.28
634.84	51772.08
635.04	51942.80
635.24	51534.02
635.44	51906.10
635.64	51633.14
635.84	51977.45
636.04	51924.28
636.24	51853.91
636.44	52041.34
636.64	51400.17
636.84	52285.22
637.03	51610.86
637.23	51953.12
637.43	52092.22
637.63	51843.51
637.83	52110.73
638.03	52022.42
638.23	51618.23
638.43	51942.88
638.62	52237.05
638.82	51328.98
639.02	52106.14
639.22	51743.41
639.42	52076.65
639.62	51550.24
639.82	51823.11
640.02	51745.29
640.21	52013.25
640.41	51330.29
640.61	51769.13
640.81	51697.94
641.01	51563.10
641.21	51295.80
641.41	51979.66
641.61	51255.91
641.80	51329.80
642.00	51654.85
642.20	51539.84
642.40	50908.73
642.60	51299.32
642.80	51423.76
642.99	50913.98
643.19	51259.76
643.39	50669.61
643.59	51053.57
643.79	50825.26
643.99	51158.42
644.19	51012.03
644.38	50418.12
644.58	50752.60
644.78	50486.69
644.98	50408.95
645.18	50560.83
645.38	50763.25
645.57	50255.68
645.77	50433.03
645.97	50139.68
646.17	50422.55
646.37	50203.17
646.56	50019.26
646.76	49968.31
646.96	49869.35
647.16	49492.61
647.36	49597.87
647.55	49438.38
647.75	49398.81
647.95	48980.20
648.15	49198.11
648.35	48973.08
648.55	49046.97
648.74	48882.88
648.94	48877.48
649.14	49203.10
649.34	48760.50
649.54	48515.15
649.73	48546.53
649.93	48184.69
650.13	48221.31
650.33	47889.05
650.52	48112.93
650.72	48229.66
650.92	47815.32
651.12	47576.85
651.32	47909.94
651.51	47874.38
651.71	47765.84
651.91	47386.31
652.11	47088.13
652.30	46873.74
652.50	47281.13
652.70	47204.94
652.90	46758.49
653.10	46981.06
653.29	46611.52
653.49	46876.37
653.69	46391.90
653.89	46348.89
654.08	46308.42
654.28	46499.46
654.48	46231.91
654.68	46326.69
654.87	45953.14
655.07	45612.85
655.27	45870.24
655.47	45390.36
655.66	45350.47
655.86	45174.50
656.06	45646.03
656.26	44797.10
656.45	45113.15
656.65	44929.98
656.85	44790.06
657.04	44419.13
657.24	44317.47
657.44	44171.98
657.64	44540.21
657.83	43686.86
658.03	44189.76
658.23	44027.72
658.43	43811.05
658.62	43774.19
658.82	43490.50
659.02	43311.34
659.21	43336.74
659.41	43026.92
659.61	43432.34
659.81	42994.56
660.00	42713.99
660.20	43002.35
660.40	42706.78
660.59	42773.14
660.79	42265.90
660.99	42666.64
661.19	42573.01
661.38	42485.52
661.58	41805.84
661.78	42045.21
661.97	41748.74
662.17	42156.21
662.37	41504.22
662.56	41442.37
662.76	41449.25
662.96	41450.48
663.15	41470.38
663.35	41245.76
663.55	40940.21
663.74	40734.18
663.94	41011.23
664.14	40450.58
664.33	40661.35
664.53	40365.38
664.73	40866.56
664.93	40267.33
665.12	40635.30
665.32	40265.69
665.52	40342.77
665.71	39976.27
665.91	40085.96
666.10	39805.39
666.30	40050.40
666.50	39643.51
666.69	39459.44
666.89	39702.58
667.09	39815.13
667.28	39366.55
667.48	39251.86
667.68	39264.97
667.87	39213.44
668.07	38866.43
668.27	39102.20
668.46	39037.32
668.66	38688.67
668.86	38895.02
669.05	38573.25
669.25	38752.48
669.44	38500.75
669.64	38338.22
669.84	38364.11
670.03	38544.66
670.23	38166.27
670.43	38097.95
670.62	38040.04
670.82	37925.02
671.01	38235.00
671.21	37829.75
671.41	37776.42
671.60	37956.56
671.80	38113.52
672.00	37775.03
672.19	37855.56
672.39	37627.33
672.58	37489.87
672.78	37360.03
672.98	37502.90
673.17	37400.25
673.37	36864.50
673.56	37035.38
673.76	37017.36
673.96	37252.47
674.15	37011.79
674.35	36988.12
674.54	36805.68
674.74	36774.88
674.94	36666.01
675.13	36734.25
675.33	36421.16
675.52	36876.30
675.72	36751.04
675.91	36706.73
676.11	36912.75
676.31	36483.09
676.50	36573.69
676.70	36474.90
676.89	36480.14
677.09	36531.42
677.28	36477.35
677.48	36037.20
677.68	36407.72
677.87	36145.91
678.07	36088.49
678.26	36067.02
678.46	36149.27
678.65	35996.82
678.85	36200.39
679.04	35625.48
679.24	35836.01
679.44	35634.66
679.63	35738.86
679.83	35648.01
680.02	35705.02
680.22	35450.01
680.41	35820.69
680.61	35583.13
680.80	35561.26
681.00	35608.20
681.19	35586.65
681.39	35346.79
681.59	35328.28
681.78	35252.34
681.98	35488.51
682.17	35065.32
682.37	35445.92
682.56	35021.66
682.76	35376.69
682.95	35220.23
683.15	35182.46
683.34	35100.71
683.54	35115.86
683.73	35167.56
683.93	34866.09
684.12	35052.95
684.32	35148.63
684.51	34775.49
684.71	35016.99
684.90	34993.56
685.10	34989.96
685.29	34866.91
685.49	35018.38
685.68	34970.62
685.88	34845.86
686.07	34683.33
686.27	34976.03
686.46	34823.17
686.66	34735.60
686.85	34991.18
687.05	34724.29
687.24	34712.01
687.44	34966.28
687.63	34895.34
687.83	34516.30
688.02	34818.58
688.22	34910.00
688.41	34670.31
688.61	34694.15
688.80	34798.92
689.00	34485.09
689.19	34444.62
689.39	34847.74
689.58	34759.60
689.77	34784.91
689.97	34854.79
690.16	34663.18
690.36	34351.48
690.55	34291.19
690.75	34855.20
690.94	34554.48
691.14	34769.51
691.33	34391.05
691.53	34760.09
691.72	34613.29
691.91	34577.09
692.11	34586.18
692.30	34791.96
692.50	34766.40
692.69	34367.37
692.89	34549.48
693.08	34555.79
693.28	34483.29
693.47	34685.38
693.66	34613.46
693.86	34565.53
694.05	34597.89
694.25	34679.32
694.44	34796.05
694.64	34663.18
694.83	34660.31
695.02	34674.40
695.22	34904.60
695.41	34692.34
695.61	34580.03
695.80	34683.42
695.99	34720.52
696.19	34724.29
696.38	34751.98
696.58	34509.17
696.77	34984.47
696.96	34938.76
697.16	34830.21
697.35	34885.18
697.55	34764.92
697.74	34728.72
697.93	35167.39
698.13	34663.26
698.32	35015.02
698.52	34811.05
698.71	34595.60
698.90	35206.96
699.10	34861.02
699.29	34861.75
699.49	35228.75
699.68	34863.06
699.87	34917.21
700.07	35111.20
700.26	34951.78
700.45	35042.79
700.65	34850.94
700.84	35259.30
701.04	34906.73
701.23	35156.74
701.42	35129.30
701.62	34969.80
701.81	35151.99
702.00	35172.55
702.20	34921.39
702.39	35148.80
702.58	35307.39
702.78	35145.60
702.97	35184.76
703.17	35271.18
703.36	35291.42
703.55	35119.96
703.75	35290.43
703.94	35426.01
704.13	35192.70
704.33	35167.47
704.52	35542.99
704.71	35405.37
704.91	35483.68
705.10	35364.00
705.29	35440.26
705.49	35528.08
705.68	35656.36
705.87	35678.24
706.07	35339.26
706.26	35759.99
706.45	35445.34
706.65	35391.44
706.84	35794.07
707.03	36081.69
707.23	35532.01
707.42	35499.00
707.61	35772.12
707.80	35570.35
708.00	35564.94
708.19	35473.03
708.38	35921.70
708.58	35294.45
708.77	35922.52
708.96	35653.66
709.16	35623.02
709.35	36298.28
709.54	35978.39
709.74	35907.45
709.93	35630.64
710.12	36265.35
710.31	36455.07
710.51	36111.18
710.70	36153.12
710.89	36296.31
711.09	35933.50
711.28	35971.83
711.47	36250.69
711.66	36198.09
711.86	36222.42
712.05	36163.69
712.24	36565.50
712.43	36179.83
712.63	35993.54
712.82	36462.36
713.01	36385.11
713.21	36097.33
713.40	36260.93
713.59	36577.30
713.78	36072.10
713.98	36526.42
714.17	36277.72
714.36	36441.47
714.55	36130.51
714.75	36327.20
714.94	36375.69
715.13	36642.26
715.32	36153.61
715.52	36455.73
715.71	36228.98
715.90	36325.89
716.09	36212.92
716.29	36653.40
716.48	36565.34
716.67	36171.22
716.86	36449.99
717.06	36467.03
717.25	36586.06
717.44	36769.48
717.63	36793.72
717.82	36517.74
718.02	36721.55
718.21	36914.80
718.40	37048.33
718.59	36854.34
718.79	36705.09
718.98	36764.32
719.17	36956.91
719.36	37033.91
719.55	36860.24
719.75	36772.92
719.94	36851.72
720.13	37128.12
720.32	37061.35
720.51	36821.90
720.71	36842.06
720.90	36510.29
721.09	36807.00
721.28	36591.63
721.47	37009.42
721.67	36909.80
721.86	36824.28
722.05	36836.40
722.24	36555.34
722.43	36983.04
722.63	36767.35
722.82	36825.51
723.01	37100.02
723.20	36786.68
723.39	36978.78
723.58	37178.50
723.78	36788.48
723.97	37321.36
724.16	36949.78
724.35	37056.44
724.54	36699.68
724.73	36988.45
724.93	36716.15
725.12	36964.61
725.31	36278.87
725.50	36692.96
725.69	36904.97
725.88	36586.14
726.08	36339.32
726.27	36874.58
726.46	36312.86
726.65	37158.51
726.84	36512.91
727.03	36758.91
727.23	37079.70
727.42	36616.21
727.61	36741.30
727.80	36578.52
727.99	36766.94
728.18	36877.36
728.37	36579.18
728.56	36456.71
728.76	36490.79
728.95	36738.43
729.14	36640.13
729.33	36559.36
729.52	36613.75
729.71	36526.18
729.90	36483.83
730.09	36189.00
730.29	36404.77
730.48	35898.03
730.67	36344.24
730.86	35957.74
731.05	36285.99
731.24	36072.18
731.43	36163.52
731.62	35939.80
731.81	35997.15
732.01	36417.14
732.20	36144.68
732.39	36466.87
732.58	36327.85
732.77	35881.64
732.96	36294.18
733.15	36312.78
733.34	36012.88
733.53	36017.13
733.72	36083.41
733.92	35893.60
734.11	35750.82
734.30	35809.72
734.49	35911.05
734.68	35691.43
734.87	35617.86
735.06	35652.27
735.25	35687.41
735.44	35424.70
735.63	35605.00
735.82	35674.96
736.01	35420.03
736.20	35410.69
736.40	35687.82
736.59	35579.61
736.78	35705.60
736.97	35293.30
737.16	35364.49
737.35	35508.34
737.54	35358.26
737.73	35304.36
737.92	35375.79
738.11	35534.22
738.30	35216.79
738.49	35202.21
738.68	35130.12
738.87	35187.63
739.06	34954.40
739.25	34970.54
739.44	34893.86
739.63	34702.26
739.82	34468.54
740.01	34711.27
740.20	34451.83
740.39	34543.50
740.59	34509.34
740.78	34579.38
740.97	34211.89
741.16	34115.72
741.35	34227.78
741.54	34090.00
741.73	34098.11
741.92	33846.04
742.11	33906.66
742.30	34024.95
742.49	33696.38
742.68	33969.82
742.87	33732.75
743.06	33420.39
743.25	33759.13
743.44	33450.05
743.63	33712.51
743.82	33403.68
744.01	33346.34
744.20	33128.35
744.39	33389.35
744.58	33190.28
744.77	32972.05
744.96	32664.36
745.15	32984.09
745.34	32796.58
745.53	32896.28
745.72	32619.39
745.91	32730.39
746.10	32531.74
746.29	32749.15
746.48	32721.87
746.67	32604.07
746.86	32507.24
747.04	32452.85
747.23	32223.97
747.42	32439.99
747.61	32010.49
747.80	32512.73
747.99	31864.67
748.18	32179.00
748.37	31963.80
748.56	31656.60
748.75	31760.80
748.94	31676.67
749.13	31592.13
749.32	31432.47
749.51	31454.01
749.70	31439.84
749.89	31307.71
750.08	31249.05
750.27	30847.49
750.46	31060.64
750.65	31217.11
750.84	30807.76
751.02	31044.67
751.21	30832.58
751.40	30911.88
751.59	30848.88
751.78	30747.22
751.97	30845.11
752.16	30478.12
752.35	30771.39
752.54	30382.93
752.73	30561.43
752.92	30282.49
753.11	30246.29
753.30	30194.68
753.49	30295.52
753.67	30086.63
753.86	29936.47
754.05	30084.58
754.24	29825.96
754.43	29739.37
754.62	29735.03
754.81	29448.15
755.00	29494.44
755.19	29413.01
755.38	28998.91
755.56	29341.58
755.75	29386.22
755.94	29083.78
756.13	29100.90
756.32	29154.88
756.51	28878.08
756.70	28995.31
756.89	28896.43
757.08	28697.78
757.26	28753.32
757.45	28559.91
757.64	28344.46
757.83	28531.56
758.02	28218.55
758.21	28147.36
758.40	28200.53
758.59	28183.65
758.77	27925.69
758.96	27963.29
759.15	28061.76
759.34	27650.94
759.53	27833.37
759.72	27749.98
759.91	27471.53
760.09	27637.42
760.28	27694.27
760.47	27307.12
760.66	27627.18
760.85	27148.12
761.04	27554.76
761.23	27338.83
761.41	27177.04
761.60	27400.68
761.79	27121.09
761.98	26857.14
762.17	27070.95
762.36	26710.10
762.54	26914.81
762.73	26687.33
762.92	26534.47
763.11	26772.19
763.30	26780.88
763.49	26610.16
763.67	26545.93
763.86	26511.69
764.05	26618.35
764.24	26412.41
764.43	26589.02
764.61	26100.54
764.80	26077.93
764.99	26364.48
765.18	25953.42
765.37	26033.45
765.55	26026.65
765.74	25857.74
765.93	25657.44
766.12	25845.78
766.31	25665.55
766.49	25670.96
766.68	25696.44
766.87	25471.90
767.06	25409.72
767.25	25432.41
767.43	25409.07
767.62	25298.48
767.81	25354.84
768.00	25123.50
768.19	25046.00
768.37	25114.49
768.56	24978.17
768.75	25039.04
768.94	25027.57
769.12	24762.97
769.31	24667.87
769.50	24655.33
769.69	24743.72
769.88	24455.70
770.06	24764.04
770.25	24497.97
770.44	24410.97
770.63	24581.77
770.81	24451.03
771.00	24339.04
771.19	24398.11
771.38	24343.06
771.56	24427.27
771.75	24002.19
771.94	24301.93
772.13	24176.84
772.31	23888.49
772.50	24243.53
772.69	24017.10
772.88	24107.79
773.06	23772.58
773.25	23867.44
773.44	23804.36
773.62	23728.26
773.81	23726.21
774.00	23590.80
774.19	23611.85
774.37	23467.43
774.56	23631.27
774.75	23228.14
774.94	23481.93
775.12	23291.47
775.31	23398.45
775.50	23314.40
775.68	23214.05
775.87	23098.71
776.06	23025.07
776.25	23111.98
776.43	22854.35
776.62	23031.21
776.81	22704.44
776.99	22861.31
777.18	22868.52
777.37	22662.25
777.55	22737.37
777.74	22758.91
777.93	22628.09
778.12	22616.21
778.30	22530.36
778.49	22513.16
778.68	22519.46
778.86	22476.21
779.05	22554.94
779.24	22515.53
779.42	22339.98
779.61	22284.44
779.80	22271.66
779.98	22339.16
780.17	22345.63
780.36	22185.24
780.54	22348.01
780.73	21895.33
780.92	22253.64
781.10	22080.79
781.29	22084.31
781.48	21857.32
781.66	21930.71
781.85	21898.03
782.04	21785.39
782.22	21865.18
782.41	21610.49
782.60	21760.65
782.78	21724.77
782.97	21770.32
783.16	21492.37
783.34	21520.71
783.53	21595.18
783.71	21440.43
783.90	21465.09
784.09	21379.81
784.27	21436.74
784.46	21373.01
784.65	21442.23
784.83	21234.40
785.02	21209.34
785.20	21413.73
785.39	21045.83
785.58	21305.76
785.76	21220.72
785.95	21214.83
786.14	21305.76
786.32	21320.83
786.51	21167.97
786.69	21340.82
786.88	21169.12
787.07	21069.91
787.25	21076.63
787.44	21118.57
787.62	21024.45
787.81	21134.55
788.00	21041.40
788.18	20931.80
788.37	20935.57
788.55	21161.09
788.74	20937.94
788.93	21034.28
789.11	21096.21
789.30	20946.79
789.48	20835.54
789.67	21017.81
789.86	20862.58
790.04	20900.67
790.23	20822.93
790.41	20765.58
790.60	20891.57
790.78	20852.09
790.97	20605.51
791.16	20786.80
791.34	21029.44
791.53	20707.34
791.71	20997.82
791.90	20791.72
792.08	20874.37
792.27	20931.31
792.46	20890.84
792.64	20936.55
792.83	20838.57
793.01	20881.17
793.20	20877.98
793.38	20865.20
793.57	20829.32
793.75	20799.42
793.94	20924.67
794.12	21037.47
794.31	20854.30
794.50	20987.26
794.68	21129.06
794.87	20963.50
795.05	21124.06
795.24	20990.94
795.42	20888.87
795.61	21182.96
795.79	21149.62
795.98	20884.04
796.16	21111.36
796.35	21100.96
796.53	20862.08
796.72	21104.65
796.90	21054.43
797.09	21015.60
797.27	20964.89
797.46	20885.43
797.64	21020.43
797.83	20953.42
798.01	21018.22
798.20	21092.85
798.38	21011.83
798.57	21226.29
798.75	21209.58
798.94	20927.54
799.12	21440.76
799.31	21222.53
799.49	21173.29
799.68	21107.10
799.86	21077.61
800.05	21146.59
800.23	21053.12
800.42	20997.74
800.60	21225.64
800.79	20907.63
800.97	21033.29
801.16	21149.62
801.34	20964.48
801.53	20907.22
801.71	20973.90
801.90	20844.72
802.08	20985.54
802.27	20841.77
802.45	20807.44
802.64	20937.78
802.82	21010.28
803.00	20772.71
803.19	20914.18
803.37	21059.18
803.56	20897.31
803.74	20825.79
803.93	20909.02
804.11	20865.69
804.30	20790.90
804.48	20838.08
804.67	20908.04
804.85	20851.27
805.03	21002.66
805.22	20785.24
805.40	20778.53
805.59	20828.58
805.77	20917.38
805.96	20791.63
806.14	20802.45
806.32	20806.13
806.51	21117.26
806.69	20884.78
806.88	20898.05
807.06	20796.39
807.25	20900.42
807.43	20883.30
807.61	20937.04
807.80	20871.50
807.98	21015.52
808.17	20844.88
808.35	20820.31
808.53	21008.72
808.72	20867.41
808.90	20871.50
809.09	20907.22
809.27	20897.23
809.45	20695.13
809.64	20829.89
809.82	20720.61
810.01	20794.42
810.19	20777.79
810.37	20723.97
810.56	20715.37
810.74	20850.86
810.93	20640.74
811.11	20658.52
811.29	20541.86
811.48	20617.15
811.66	20638.20
811.84	20593.96
812.03	20554.56
812.21	20596.59
812.40	20706.19
812.58	20851.68
812.76	20636.56
812.95	20799.74
813.13	20502.87
813.31	20696.94
813.50	20737.49
813.68	20675.64
813.86	20809.66
814.05	20795.73
814.23	20504.59
814.42	20645.41
814.60	20517.94
814.78	20617.15
814.97	20521.79
815.15	20529.49
815.33	20641.07
815.52	20549.48
815.70	20656.47
815.88	20597.81
816.07	20490.99
816.25	20599.62
816.43	20612.40
816.62	20435.70
816.80	20468.87
816.98	20432.83
817.17	20383.84
817.35	20435.53
817.53	20429.06
817.72	20552.02
817.90	20338.62
818.08	20409.48
818.26	20580.45
818.45	20383.27
818.63	20563.00
818.81	20576.84
819.00	20361.31
819.18	20526.14
819.36	20519.66
819.55	20543.75
819.73	20388.27
819.91	20554.23
820.09	20449.87
820.28	20590.11
820.46	20403.67
820.64	20652.13
820.83	20418.25
821.01	20467.24
821.19	20425.21
821.38	20470.92
821.56	20340.92
821.74	20483.70
821.92	20373.93
822.11	20609.69
822.29	20358.37
822.47	20448.64
822.65	20510.65
822.84	20541.95
823.02	20309.95
823.20	20579.79
823.39	20406.12
823.57	20455.85
823.75	20455.85
823.93	20319.78
824.12	20426.93
824.30	20299.79
824.48	20315.69
824.66	20463.22
824.85	20058.46
825.03	20394.49
825.21	20443.15
825.39	20345.42
825.58	20436.27
825.76	20307.17
825.94	20429.55
826.12	20374.42
826.31	20286.52
826.49	20336.17
826.67	20409.48
826.85	20320.85
827.03	20286.77
827.22	20394.98
827.40	20266.04
827.58	20177.00
827.76	20299.38
827.95	20196.25
828.13	20233.69
828.31	20236.63
828.49	20306.35
828.67	20282.35
828.86	20170.53
829.04	20293.90
829.22	20160.29
829.40	20206.65
829.58	20122.85
829.77	20238.35
829.95	20205.67
830.13	20238.60
830.31	20169.54
830.49	20236.72
830.68	20269.16
830.86	20190.27
831.04	20160.78
831.22	20205.34
831.40	20165.69
831.59	20317.00
831.77	20126.70
831.95	20305.69
832.13	20114.66
832.31	20293.73
832.50	20334.69
832.68	20209.36
832.86	20226.15
833.04	20339.28
833.22	20074.68
833.40	20460.60
833.59	20201.98
833.77	20370.49
833.95	19934.11
834.13	20598.39
834.31	20283.25
834.49	20315.93
834.67	20285.13
834.86	20368.20
835.04	20200.75
835.22	20346.73
835.40	20274.89
835.58	20253.51
835.76	20215.91
835.95	20257.93
836.13	20230.98
836.31	20137.84
836.49	20289.14
836.67	20353.37
836.85	20296.93
837.03	20290.78
837.21	20338.95
837.40	20237.54
837.58	20025.37
837.76	20212.55
837.94	20178.47
838.12	20297.58
838.30	20140.30
838.48	20187.16
838.66	20182.49
838.85	20210.58
839.03	20250.97
839.21	20162.50
839.39	20104.25
839.57	20200.18
839.75	20117.85
839.93	20174.05
840.11	20109.66
840.29	20134.56
840.47	20208.62
840.66	20148.24
840.84	20201.16
841.02	20102.53
841.20	20175.28
841.38	20166.84
841.56	20160.53
841.74	20370.98
841.92	20084.76
842.10	20106.38
842.28	20250.15
842.46	20125.14
842.65	20060.18
842.83	20237.54
843.01	20305.77
843.19	20142.02
843.37	20290.78
843.55	20146.93
843.73	20279.40
843.91	20304.71
844.09	20140.79
844.27	20335.67
844.45	20086.48
844.63	20116.54
844.81	20105.40
844.99	20180.93
845.17	20076.97
845.35	20296.27
845.54	20063.54
845.72	20145.21
845.90	20128.42
846.08	20168.81
846.26	19953.03
846.44	20183.06
846.62	19947.54
846.80	19935.91
846.98	20019.22
847.16	20070.67
847.34	20164.96
847.52	20137.02
847.70	19993.66
847.88	20118.26
848.06	20013.65
848.24	20096.23
848.42	20145.95
848.60	19925.75
848.78	20078.37
848.96	20010.70
849.14	19916.82
849.32	20062.56
849.50	19855.71
849.68	20048.06
849.86	19960.24
850.04	19934.52
850.22	19875.78
850.40	19848.34
850.58	19955.49
850.76	20318.55
850.94	19684.26
851.12	20019.06
851.30	19843.51
851.48	19976.05
851.66	19817.95
851.84	19784.52
852.02	19736.52
852.20	19862.84
852.38	19728.33
852.56	19813.93
852.74	19837.61
852.92	19766.58
853.10	19675.49
853.28	19797.88
853.46	19518.94
853.64	19800.09
853.82	19564.57
854.00	19640.02
854.18	19515.91
854.36	19483.23
854.54	19613.15
854.72	19460.21
854.90	19494.29
855.07	19548.76
855.25	19515.75
855.43	19540.41
855.61	19566.87
855.79	19477.33
855.97	19594.64
856.15	19571.37
856.33	19493.88
856.51	19661.40
856.69	19458.82
856.87	19662.38
857.05	19531.72
857.23	19636.66
857.41	19460.86
857.59	19558.84
857.77	19509.11
857.94	19460.62
858.12	19649.11
858.30	19467.42
858.48	19472.25
858.66	19437.03
858.84	19585.05
859.02	19406.39
859.20	19339.87
859.38	19576.04
859.56	19493.80
859.74	19392.54
859.92	19423.10
860.09	19327.01
860.27	19364.45
860.45	19183.32
860.63	19193.07
860.81	19341.75
860.99	19171.53
861.17	18994.09
861.35	18668.14
861.53	18578.60
861.70	18628.90
861.88	19028.50
862.06	18965.99
862.24	18729.66
862.42	18671.74
862.60	18980.16
862.78	18998.10
862.96	19080.84
863.14	18924.54
863.31	18977.46
863.49	18985.24
863.67	18982.79
863.85	18914.30
864.03	19026.29
864.21	18952.97
864.39	18976.56
864.56	18773.89
864.74	18891.36
864.92	18726.13
865.10	18746.70
865.28	18821.24
865.46	18960.26
865.64	18587.20
865.81	18833.04
865.99	18507.99
866.17	18808.54
866.35	18624.31
866.53	18635.61
866.71	18644.95
866.88	18623.41
867.06	18432.62
867.24	18560.99
867.42	18390.68
867.60	18494.88
867.78	18309.91
867.95	18480.46
868.13	18296.88
868.31	18417.63
868.49	18401.00
868.67	18290.65
868.84	18240.11
869.02	18347.34
869.20	17974.94
869.38	18262.80
869.56	18104.13
869.73	18048.99
869.91	18134.76
870.09	18096.02
870.27	18022.12
870.45	18077.67
870.62	17944.88
870.80	18091.51
870.98	18015.57
871.16	18022.70
871.34	18084.47
871.51	18106.99
871.69	17920.79
871.87	17984.44
872.05	17983.38
872.23	17934.39
872.40	17786.36
872.58	17877.29
872.76	17787.10
872.94	17778.58
873.11	17746.55
873.29	17699.61
873.47	17735.49
873.65	17659.06
873.83	17646.20
874.00	17563.13
874.18	17583.20
874.36	17519.23
874.54	17556.42
874.71	17424.36
874.89	17267.98
875.07	17362.19
875.25	17325.82
875.42	17300.09
875.60	17329.58
875.78	17464.67
875.96	17244.96
876.13	17400.36
876.31	17171.15
876.49	17157.64
876.66	17073.83
876.84	17345.39
877.02	17158.70
877.20	17191.31
877.37	17205.89
877.55	17130.69
877.73	17080.06
877.91	17069.74
878.08	17222.27
878.26	17115.12
878.44	17064.17
878.61	17014.77
878.79	16934.00
878.97	16956.94
879.15	17065.40
879.32	17029.27
879.50	16994.54
879.68	17077.85
879.85	16889.11
880.03	17040.25
880.21	16925.81
880.38	17011.58
880.56	16893.61
880.74	17028.37
880.92	16806.53
881.09	16922.12
881.27	16877.64
881.45	16954.40
881.62	16893.94
881.80	16798.91
881.98	16718.14
882.15	16821.85
882.33	16716.18
882.51	16738.87
882.68	16557.83
882.86	16816.69
883.04	16503.02
883.21	16561.60
883.39	16676.28
883.57	16546.77
883.74	16573.23
883.92	16639.50
884.10	16614.27
884.27	16560.12
884.45	16508.27
884.63	16667.52
884.80	16544.72
884.98	16607.39
885.16	16563.15
885.33	16641.22
885.51	16592.48
885.69	16642.20
885.86	16553.16
886.04	16599.20
886.21	16415.86
886.39	16624.51
886.57	16374.49
886.74	16624.18
886.92	16549.31
887.10	16551.03
887.27	16530.55
887.45	16491.72
887.62	16492.05
887.80	16512.61
887.98	16619.51
888.15	16511.22
888.33	16444.53
888.51	16615.74
888.68	16476.48
888.86	16486.48
889.03	16467.47
889.21	16533.83
889.39	16547.75
889.56	16498.35
889.74	16492.46
889.91	16481.72
890.09	16429.87
890.27	16474.43
890.44	16451.01
890.62	16450.68
890.79	16468.13
890.97	16479.35
891.14	16400.87
891.32	16375.80
891.50	16318.38
891.67	16390.22
891.85	16325.26
892.02	16306.91
892.20	16385.47
892.38	16287.58
892.55	16180.26
892.73	16278.07
892.90	16134.72
893.08	16220.24
893.25	16181.41
893.43	16374.82
893.60	16191.00
893.78	16264.48
893.96	16219.75
894.13	16337.55
894.31	16343.53
894.48	16211.72
894.66	16243.26
894.83	16271.85
895.01	16177.64
895.18	16184.44
895.36	16080.90
895.53	16172.56
895.71	16057.30
895.89	16107.52
896.06	15990.87
896.24	16108.18
896.41	16063.78
896.59	16071.07
896.76	15915.67
896.94	15997.75
897.11	16001.03
897.29	16077.29
897.46	15896.58
897.64	15978.25
897.81	15910.83
897.99	15794.34
898.16	15996.03
898.34	15912.55
898.51	15817.94
898.69	15761.74
898.86	15846.53
899.04	15760.51
899.21	15777.63
899.39	15756.58
899.56	15636.81
899.74	15824.16
899.91	15626.49
900.09	15547.44
900.26	15605.52
900.44	15446.19
900.61	15495.10
900.79	15616.17
900.96	15469.45
901.14	15430.63
901.31	15453.56
901.49	15389.26
901.66	15413.67
901.84	15416.45
902.01	15327.41
902.19	15380.65
902.36	15234.27
902.54	15192.49
902.71	15164.64
902.88	15252.37
903.06	14987.85
903.23	15213.46
903.41	14980.65
903.58	15018.16
903.76	14860.23
903.93	14986.95
904.11	15031.19
904.28	14892.26
904.45	14894.71
904.63	14838.76
904.80	14734.40
904.98	14779.86
905.15	14698.76
905.33	14789.20
905.50	14620.45
905.68	14701.06
905.85	14570.48
906.02	14571.63
906.20	14610.05
906.37	14437.61
906.55	14396.97
906.72	14531.49
906.90	14347.91
907.07	14239.44
907.24	14310.30
907.42	14232.40
907.59	14161.29
907.77	14156.62
907.94	14083.06
908.11	14106.33
908.29	13986.81
908.46	14034.40
908.64	13913.82
908.81	13906.53
908.98	13788.15
909.16	13898.91
909.33	13819.86
909.51	13756.12
909.68	13675.19
909.85	13670.44
910.03	13610.88
910.20	13562.63
910.37	13539.86
910.55	13494.23
910.72	13433.61
910.90	13383.64
911.07	13331.62
911.24	13277.88
911.42	13357.02
911.59	13213.82
911.76	13215.21
911.94	13157.05
912.11	13112.82
912.29	13116.83
912.46	13044.74
912.63	13098.97
912.81	12961.18
912.98	13003.45
913.15	12866.98
913.33	12965.03
913.50	12907.36
913.67	12794.23
913.85	12778.26
914.02	12741.48
914.19	12678.40
914.37	12607.46
914.54	12623.93
914.71	12583.13
914.89	12572.97
915.06	12556.92
915.23	12440.92
915.41	12425.44
915.58	12366.54
915.75	12340.98
915.93	12292.48
916.10	12239.89
916.27	12193.69
916.45	12145.85
916.62	12024.53
916.79	12138.23
916.97	12007.32
917.14	12004.29
917.31	11955.80
917.49	11944.08
917.66	11977.34
917.83	11869.29
918.00	11884.28
918.18	11800.15
918.35	11741.33
918.52	11783.93
918.70	11668.26
918.87	11676.53
919.04	11661.13
919.21	11591.42
919.39	11473.87
919.56	11546.45
919.73	11429.22
919.91	11421.28
920.08	11391.95
920.25	11299.05
920.42	11391.70
920.60	11298.64
920.77	11201.32
920.94	11262.60
921.11	11140.38
921.29	11209.27
921.46	11026.35
921.63	11168.64
921.81	10997.59
921.98	10993.25
922.15	10998.74
922.32	10998.66
922.50	10898.31
922.67	10874.63
922.84	10860.05
923.01	10760.19
923.19	10744.30
923.36	10699.74
923.53	10594.22
923.70	10647.64
923.87	10559.00
924.05	10596.60
924.22	10483.22
924.39	10523.36
924.56	10394.42
924.74	10424.49
924.91	10407.61
925.08	10380.66
925.25	10334.38
925.43	10311.03
925.60	10214.12
925.77	10287.85
925.94	10224.77
926.11	10208.14
926.29	10163.41
926.46	10161.61
926.63	10150.39
926.80	10138.10
926.97	10012.03
927.15	10071.34
927.32	9945.59
927.49	9937.07
927.66	9920.85
927.83	9897.34
928.01	9811.82
928.18	9776.10
928.35	9682.96
928.52	9811.82
928.69	9647.33
928.87	9677.88
929.04	9649.37
929.21	9601.45
929.38	9553.28
929.55	9569.26
929.72	9474.80
929.90	9487.09
930.07	9469.23
930.24	9386.33
930.41	9387.48
930.58	9339.80
930.75	9379.70
930.93	9317.85
931.10	9285.82
931.27	9196.61
931.44	9229.87
931.61	9168.76
931.78	9219.71
931.95	9153.19
932.13	9055.87
932.30	9162.28
932.47	9033.51
932.64	9080.37
932.81	9048.50
932.98	9022.53
933.15	9017.86
933.33	8937.01
933.50	9036.95
933.67	8922.59
933.84	8946.92
934.01	8957.16
934.18	8918.82
934.35	8886.55
934.52	8902.03
934.70	8888.02
934.87	8850.26
935.04	8818.47
935.21	8748.76
935.38	8754.90
935.55	8724.18
935.72	8754.66
935.89	8652.09
936.06	8698.38
936.24	8570.42
936.41	8679.86
936.58	8586.81
936.75	8576.89
936.92	8552.40
937.09	8576.16
937.26	8466.30
937.43	8508.00
937.60	8496.69
937.77	8435.83
937.94	8435.67
938.12	8423.95
938.29	8353.50
938.46	8404.21
938.63	8274.20
938.80	8372.26
938.97	8263.96
939.14	8282.80
939.31	8233.74
939.48	8248.24
939.65	8158.21
939.82	8148.21
939.99	8132.32
940.16	8125.11
940.33	8083.58
940.50	8081.86
940.67	8077.52
940.85	8068.83
941.02	8040.00
941.19	7987.08
941.36	7954.47
941.53	7989.54
941.70	7966.35
941.87	7886.15
942.04	7845.77
942.21	7882.39
942.38	7851.26
942.55	7780.89
942.72	7799.65
942.89	7788.10
943.06	7733.54
943.23	7723.30
943.40	7677.83
943.57	7723.30
943.74	7692.91
943.91	7698.07
944.08	7671.94
944.25	7689.06
944.42	7628.19
944.59	7609.27
944.76	7618.85
944.93	7580.92
945.10	7553.89
945.27	7562.74
945.44	7471.73
945.61	7479.84
945.78	7461.24
945.95	7477.95
946.12	7382.52
946.29	7444.45
946.46	7394.31
946.63	7379.32
946.80	7357.12
946.97	7359.91
947.14	7285.36
947.31	7333.45
947.48	7273.32
947.65	7275.94
947.82	7275.61
947.99	7289.54
948.16	7200.08
948.33	7262.83
948.50	7189.44
948.67	7190.09
948.84	7164.29
949.01	7159.29
949.18	7138.97
949.35	7143.97
949.52	7052.96
949.68	7075.49
949.85	7049.27
950.02	7037.23
950.19	6980.05
950.36	6987.59
950.53	6983.74
950.70	6962.11
950.87	6918.94
951.04	6957.28
951.21	6888.30
951.38	6905.34
951.55	6875.44
951.72	6852.67
951.89	6870.20
952.06	6847.59
952.23	6868.56
952.39	6827.93
952.56	6787.38
952.73	6801.88
952.90	6750.92
953.07	6811.87
953.24	6708.16
953.41	6712.50
953.58	6657.37
953.75	6724.38
953.92	6662.04
954.09	6619.28
954.25	6614.37
954.42	6604.70
954.59	6574.64
954.76	6574.39
954.93	6518.03
955.10	6557.10
955.27	6502.79
955.44	6524.09
955.61	6501.81
955.77	6532.36
955.94	6500.42
956.11	6483.71
956.28	6481.00
956.45	6472.56
956.62	6482.72
956.79	6470.68
956.96	6456.02
957.12	6453.31
957.29	6453.23
957.46	6429.15
957.63	6408.18
957.80	6397.94
957.97	6394.00
958.14	6417.19
958.30	6320.60
958.47	6345.92
958.64	6303.81
958.81	6334.61
958.98	6284.48
959.15	6293.16
959.32	6315.20
959.48	6271.29
959.65	6226.23
959.82	6249.66
959.99	6174.46
960.16	6181.59
960.33	6201.90
960.49	6173.72
960.66	6131.13
960.83	6130.55
961.00	6162.01
961.17	6149.31
961.33	6092.05
961.50	6097.46
961.67	6063.54
961.84	6103.60
962.01	6055.27
962.18	6091.89
962.34	6037.08
962.51	6044.37
962.68	5988.10
962.85	6037.58
963.02	6013.25
963.18	6022.26
963.35	5976.38
963.52	5988.10
963.69	5969.42
963.86	5964.09
964.02	5907.41
964.19	5962.46
964.36	5920.10
964.53	5910.85
964.69	5868.58
964.86	5900.77
965.03	5819.18
965.20	5886.85
965.37	5829.42
965.53	5839.58
965.70	5803.04
965.87	5816.40
966.04	5761.18
966.20	5784.36
966.37	5765.52
966.54	5728.74
966.71	5769.87
966.87	5707.36
967.04	5759.95
967.21	5695.07
967.38	5697.37
967.54	5712.19
967.71	5720.30
967.88	5696.06
968.05	5658.70
968.21	5629.13
968.38	5632.41
968.55	5627.00
968.72	5594.48
968.88	5570.23
969.05	5592.35
969.22	5565.81
969.39	5570.39
969.55	5567.28
969.72	5521.90
969.89	5544.59
970.05	5564.17
970.22	5575.39
970.39	5514.52
970.56	5543.93
970.72	5507.32
970.89	5513.87
971.06	5491.18
971.22	5466.52
971.39	5454.48
971.56	5505.92
971.73	5460.13
971.89	5483.56
972.06	5427.85
972.23	5441.78
972.39	5408.52
972.56	5429.49
972.73	5370.02
972.89	5385.67
973.06	5376.66
973.23	5400.90
973.39	5370.10
973.56	5377.88
973.73	5340.45
973.89	5353.96
974.06	5334.47
974.23	5324.15
974.39	5318.90
974.56	5309.15
974.73	5271.64
974.89	5272.13
975.06	5269.26
975.23	5298.18
975.39	5249.52
975.56	5261.07
975.73	5248.12
975.89	5243.13
976.06	5224.78
976.23	5206.59
976.39	5206.43
976.56	5209.46
976.73	5188.49
976.89	5192.58
977.06	5160.88
977.23	5150.15
977.39	5161.37
977.56	5137.37
977.72	5083.22
977.89	5135.57
978.06	5088.14
978.22	5100.02
978.39	5091.82
978.56	5085.76
978.72	5052.99
978.89	5085.02
979.05	5052.42
979.22	5051.77
979.39	5056.11
979.55	5043.25
979.72	5028.09
979.88	5025.63
980.05	4996.88
980.22	5010.40
980.38	5004.50
980.55	4997.45
980.71	4970.75
980.88	4989.02
981.05	4972.55
981.21	4959.12
981.38	4963.05
981.54	4967.14
981.71	4944.53
981.88	4924.71
982.04	4942.32
982.21	4938.96
982.37	4914.14
982.54	4917.01
982.70	4904.39
982.87	4914.88
983.04	4868.02
983.20	4912.34
983.37	4880.15
983.53	4884.82
983.70	4873.35
983.86	4882.85
984.03	4840.58
984.20	4860.81
984.36	4860.73
984.53	4869.17
984.69	4835.01
984.86	4830.75
985.02	4817.56
985.19	4831.40
985.35	4804.21
985.52	4795.69
985.68	4765.62
985.85	4766.52
986.02	4781.52
986.18	4779.22
986.35	4758.50
986.51	4764.31
986.68	4739.98
986.84	4757.76
987.01	4740.31
987.17	4738.10
987.34	4730.48
987.50	4708.28
987.67	4700.01
987.83	4715.00
988.00	4694.11
988.16	4679.12
988.33	4661.91
988.49	4699.51
988.66	4646.76
988.82	4658.56
988.99	4637.42
989.15	4654.54
989.32	4608.01
989.48	4607.60
989.65	4587.04
989.81	4591.05
989.98	4563.53
990.14	4565.00
990.31	4574.10
990.47	4582.62
990.64	4569.51
990.80	4582.62
990.97	4549.03
991.13	4564.43
991.30	4565.74
991.46	4540.51
991.63	4536.58
991.79	4540.84
991.95	4495.54
992.12	4527.98
992.28	4515.12
992.45	4508.89
992.61	4478.99
992.78	4512.33
992.94	4497.09
993.11	4502.25
993.27	4473.26
993.44	4464.16
993.60	4458.35
993.76	4464.00
993.93	4447.61
994.09	4450.40
994.26	4452.20
994.42	4447.04
994.59	4416.73
994.75	4427.38
994.91	4411.32
995.08	4401.82
995.24	4385.60
995.41	4412.31
995.57	4372.09
995.74	4402.23
995.90	4383.64
996.06	4373.89
996.23	4388.06
996.39	4360.37
996.56	4352.67
996.72	4351.69
996.88	4373.23
997.05	4353.65
997.21	4356.93
997.38	4335.06
997.54	4325.15
997.70	4338.34
997.87	4351.20
998.03	4318.84
998.20	4294.26
998.36	4293.94
998.52	4263.38
998.69	4322.36
998.85	4274.68
999.02	4292.71
999.18	4254.78
999.34	4286.23
999.51	4253.39
999.67	4273.21
999.83	4259.69
1000.00	4261.90
1000.16	4248.72
1000.33	4241.75
1000.49	4222.34
1000.65	4243.56
1000.82	4253.39
1000.98	4218.16
1001.14	4214.23
1001.31	4224.47
1001.47	4206.61
1001.63	4215.78
1001.80	4194.73
1001.96	4191.54
1002.12	4196.94
1002.29	4194.49
1002.45	4179.25
1002.61	4170.65
1002.78	4161.23
1002.94	4156.97
1003.10	4161.96
1003.27	4162.54
1003.43	4110.85
1003.59	4138.37
1003.76	4138.13
1003.92	4135.01
1004.08	4103.56
1004.25	4137.63
1004.41	4106.10
1004.57	4120.43
1004.74	4107.41
1004.90	4151.07
1005.06	4105.19
1005.23	4082.26
1005.39	4095.20
1005.55	4109.86
1005.71	4097.58
1005.88	4094.38
1006.04	4092.01
1006.20	4096.67
1006.37	4050.06
1006.53	4048.26
1006.69	4058.91
1006.85	4077.59
1007.02	4049.33
1007.18	4034.17
1007.34	4035.32
1007.51	4068.82
1007.67	4032.61
1007.83	4034.01
1007.99	4010.50
1008.16	4021.56
1008.32	3995.59
1008.48	4024.59
1008.64	3991.57
1008.81	4013.77
1008.97	3979.94
1009.13	4003.94
1009.29	3986.58
1009.46	3992.56
1009.62	3999.11
1009.78	3974.29
1009.95	3976.09
1010.11	3987.15
1010.27	3968.72
1010.43	3956.84
1010.59	3956.10
1010.76	3940.29
1010.92	3944.72
1011.08	3962.25
1011.24	3925.79
1011.41	3965.85
1011.57	3928.66
1011.73	3937.92
1011.89	3913.34
1012.06	3930.79
1012.22	3873.77
1012.38	3920.96
1012.54	3894.83
1012.70	3885.00
1012.87	3889.50
1013.03	3895.89
1013.19	3886.64
1013.35	3911.13
1013.51	3846.99
1013.68	3877.54
1013.84	3849.03
1014.00	3859.93
1014.16	3833.55
1014.32	3849.44
1014.49	3865.42
1014.65	3877.30
1014.81	3838.14
1014.97	3856.41
1015.13	3848.38
1015.30	3845.92
1015.46	3833.22
1015.62	3810.04
1015.78	3832.40
1015.94	3820.28
1016.10	3813.73
1016.27	3810.61
1016.43	3784.32
1016.59	3798.98
1016.75	3784.15
1016.91	3802.50
1017.07	3802.75
1017.24	3799.97
1017.40	3767.77
1017.56	3780.88
1017.72	3748.03
1017.88	3763.92
1018.04	3757.04
1018.21	3782.52
1018.37	3778.26
1018.53	3772.69
1018.69	3763.59
1018.85	3764.08
1019.01	3757.53
1019.17	3748.27
1019.34	3717.23
1019.50	3743.85
1019.66	3715.42
1019.82	3727.96
1019.98	3718.87
1020.14	3749.91
1020.30	3710.84
1020.46	3730.91
1020.63	3711.90
1020.79	3716.08
1020.95	3714.36
1021.11	3732.96
1021.27	3687.33
1021.43	3699.70
1021.59	3708.38
1021.75	3686.59
1021.91	3682.66
1022.07	3700.19
1022.24	3676.76
1022.40	3673.65
1022.56	3653.66
1022.72	3683.48
1022.88	3656.69
1023.04	3677.91
1023.20	3656.12
1023.36	3651.04
1023.52	3643.99
1023.68	3656.28
1023.84	3622.04
1024.01	3656.93
1024.17	3642.44
1024.33	3649.32
1024.49	3642.60
1024.65	3641.70
1024.81	3632.20
1024.97	3630.88
1025.13	3636.54
1025.29	3642.03
1025.45	3610.00
1025.61	3648.82
1025.77	3605.41
1025.93	3615.89
1026.09	3604.75
1026.25	3633.59
1026.41	3600.25
1026.57	3625.07
1026.73	3619.99
1026.90	3618.11
1027.06	3601.80
1027.22	3615.57
1027.38	3614.75
1027.54	3611.96
1027.70	3581.57
1027.86	3598.77
1028.02	3607.62
1028.18	3587.96
1028.34	3578.13
1028.50	3594.35
1028.66	3582.72
1028.82	3604.75
1028.98	3564.86
1029.14	3571.17
1029.30	3573.05
1029.46	3566.25
1029.62	3561.50
1029.78	3549.54
1029.94	3551.75
1030.10	3571.82
1030.26	3529.88
1030.42	3561.01
1030.58	3539.22
1030.74	3558.71
1030.90	3514.56
1031.06	3547.25
1031.22	3533.07
1031.38	3522.42
1031.54	3520.13
1031.70	3534.63
1031.86	3523.00
1032.02	3516.94
1032.18	3512.51
1032.34	3511.12
1032.50	3499.57
1032.66	3518.82
1032.82	3496.21
1032.98	3535.70
1033.14	3524.31
1033.30	3530.45
1033.45	3482.94
1033.61	3523.65
1033.77	3481.87
1033.93	3498.67
1034.09	3489.25
1034.25	3496.13
1034.41	3486.22
1034.57	3484.00
1034.73	3482.28
1034.89	3486.79
1035.05	3487.69
1035.21	3488.67
1035.37	3465.90
1035.53	3485.23
1035.69	3455.66
1035.85	3499.65
1036.01	3457.63
1036.16	3471.96
1036.32	3456.81
1036.48	3463.44
1036.64	3437.56
1036.80	3474.17
1036.96	3453.53
1037.12	3450.91
1037.28	3453.94
1037.44	3459.92
1037.60	3464.18
1037.76	3450.91
1037.91	3446.65
1038.07	3463.03
1038.23	3438.87
1038.39	3470.49
1038.55	3441.00
1038.71	3447.96
1038.87	3436.08
1039.03	3447.30
1039.19	3430.18
1039.35	3438.46
1039.50	3448.70
1039.66	3433.30
1039.82	3415.77
1039.98	3428.38
1040.14	3415.52
1040.30	3429.12
1040.46	3409.05
1040.62	3415.44
1040.77	3411.67
1040.93	3441.73
1041.09	3408.64
1041.25	3412.33
1041.41	3412.24
1041.57	3415.68
1041.73	3415.68
1041.88	3415.68

