SpectraSuite Data File
++++++++++++++++++++++++++++++++++++
Date: Tue Sep 20 12:12:55 EDT 2022
User: Laboratoire
Dark Spectrum Present: No
Reference Spectrum Present: No
Number of Sampled Component Spectra: 1
Spectrometers: FLMT00174
Integration Time (usec): 15000 (FLMT00174)
Spectra Averaged: 25 (FLMT00174)
Boxcar Smoothing: 0 (FLMT00174)
Correct for Electrical Dark: No (FLMT00174)
Strobe/Lamp Enabled: No (FLMT00174)
Correct for Detector Non-linearity: No (FLMT00174)
Correct for Stray Light: No (FLMT00174)
Number of Pixels in Processed Spectrum: 3648
>>>>>Begin Processed Spectral Data<<<<<
345.74	3161.90
345.96	3161.90
346.18	3161.90
346.39	3179.18
346.61	3221.78
346.83	3223.42
347.05	3220.88
347.27	3211.22
347.49	3217.28
347.71	3233.01
347.93	3231.45
348.15	3230.14
348.36	3246.69
348.58	3207.20
348.80	3203.92
349.02	3232.92
349.24	3229.81
349.46	3283.55
349.68	3315.74
349.90	3323.36
350.11	3297.72
350.33	3311.16
350.55	3306.65
350.77	3325.41
350.99	3288.22
351.21	3317.71
351.43	3310.83
351.65	3321.07
351.86	3293.38
352.08	3321.72
352.30	3313.20
352.52	3315.25
352.74	3296.16
352.96	3293.05
353.18	3312.71
353.39	3314.27
353.61	3299.03
353.83	3330.00
354.05	3322.62
354.27	3302.80
354.49	3324.67
354.70	3313.12
354.92	3304.85
355.14	3312.96
355.36	3298.70
355.58	3318.04
355.80	3295.76
356.02	3313.70
356.23	3318.86
356.45	3320.25
356.67	3314.51
356.89	3326.97
357.11	3306.40
357.33	3339.42
357.54	3309.35
357.76	3283.47
357.98	3285.35
358.20	3324.51
358.42	3302.23
358.63	3315.50
358.85	3325.57
359.07	3328.19
359.29	3293.38
359.51	3312.47
359.73	3300.26
359.94	3309.44
360.16	3301.82
360.38	3304.36
360.60	3290.02
360.82	3321.40
361.03	3313.45
361.25	3319.10
361.47	3330.49
361.69	3315.33
361.91	3326.97
362.12	3325.57
362.34	3316.64
362.56	3318.86
362.78	3308.86
363.00	3334.67
363.21	3314.35
363.43	3330.49
363.65	3302.06
363.87	3316.48
364.09	3337.70
364.30	3312.79
364.52	3312.71
364.74	3332.13
364.96	3301.33
365.17	3308.86
365.39	3323.36
365.61	3297.31
365.83	3310.09
366.05	3318.12
366.26	3311.73
366.48	3322.87
366.70	3310.17
366.92	3328.19
367.13	3305.59
367.35	3315.17
367.57	3314.76
367.79	3293.95
368.01	3325.33
368.22	3342.29
368.44	3313.12
368.66	3324.92
368.88	3326.39
369.09	3333.19
369.31	3326.72
369.53	3307.06
369.75	3336.22
369.96	3321.23
370.18	3327.46
370.40	3337.62
370.62	3313.86
370.83	3325.74
371.05	3343.76
371.27	3343.60
371.49	3308.94
371.70	3316.81
371.92	3319.43
372.14	3331.55
372.36	3314.43
372.57	3349.82
372.79	3328.36
373.01	3336.39
373.22	3308.21
373.44	3348.76
373.66	3330.00
373.88	3332.21
374.09	3310.01
374.31	3320.17
374.53	3313.04
374.75	3340.89
374.96	3326.47
375.18	3345.48
375.40	3341.79
375.61	3336.14
375.83	3327.13
376.05	3335.16
376.27	3341.55
376.48	3334.50
376.70	3326.31
376.92	3339.50
377.13	3355.80
377.35	3335.98
377.57	3330.73
377.79	3338.52
378.00	3340.65
378.22	3340.24
378.44	3326.39
378.65	3357.77
378.87	3337.94
379.09	3355.06
379.30	3343.43
379.52	3355.80
379.74	3329.59
379.96	3337.04
380.17	3334.83
380.39	3332.78
380.61	3347.86
380.82	3348.10
381.04	3355.72
381.26	3356.05
381.47	3354.57
381.69	3367.60
381.91	3359.98
382.12	3351.95
382.34	3344.50
382.56	3343.51
382.77	3352.36
382.99	3354.41
383.21	3349.33
383.42	3384.47
383.64	3358.34
383.86	3352.77
384.07	3369.07
384.29	3342.78
384.51	3357.77
384.72	3377.02
384.94	3348.67
385.16	3371.69
385.37	3376.53
385.59	3372.27
385.81	3376.69
386.02	3365.71
386.24	3376.12
386.46	3374.81
386.67	3400.28
386.89	3385.70
387.11	3394.39
387.32	3408.72
387.54	3404.95
387.76	3389.72
387.97	3404.30
388.19	3398.32
388.40	3417.49
388.62	3412.24
388.84	3416.67
389.05	3428.30
389.27	3421.99
389.49	3445.09
389.70	3412.90
389.92	3431.58
390.14	3422.89
390.35	3444.03
390.57	3437.72
390.78	3433.87
391.00	3422.48
391.22	3450.17
391.43	3442.88
391.65	3451.81
391.86	3468.69
392.08	3483.76
392.30	3456.07
392.51	3448.86
392.73	3503.83
392.95	3463.12
393.16	3449.68
393.38	3486.71
393.59	3451.73
393.81	3483.02
394.03	3476.39
394.24	3479.17
394.46	3474.99
394.67	3495.06
394.89	3469.83
395.11	3503.83
395.32	3519.80
395.54	3499.90
395.75	3504.89
395.97	3483.35
396.19	3474.67
396.40	3505.30
396.62	3490.72
396.83	3499.32
397.05	3508.09
397.26	3505.79
397.48	3497.68
397.70	3495.31
397.91	3504.98
398.13	3514.23
398.34	3499.81
398.56	3522.75
398.78	3510.22
398.99	3540.45
399.21	3515.46
399.42	3545.44
399.64	3502.52
399.85	3518.57
400.07	3516.94
400.29	3545.85
400.50	3516.69
400.72	3548.15
400.93	3533.81
401.15	3518.00
401.36	3537.58
401.58	3554.21
401.79	3549.05
402.01	3559.53
402.23	3555.60
402.44	3584.27
402.66	3563.14
402.87	3580.01
403.09	3575.51
403.30	3584.52
403.52	3569.45
403.73	3569.36
403.95	3600.41
404.16	3602.95
404.38	3614.83
404.60	3620.97
404.81	3633.42
405.03	3632.03
405.24	3631.21
405.46	3653.33
405.67	3662.67
405.89	3671.76
406.10	3672.01
406.32	3684.13
406.53	3692.49
406.75	3726.65
406.96	3707.40
407.18	3716.16
407.39	3702.40
407.61	3745.98
407.82	3746.72
408.04	3762.12
408.25	3751.80
408.47	3786.53
408.68	3794.97
408.90	3778.50
409.12	3813.89
409.33	3852.23
409.55	3820.53
409.76	3845.10
409.98	3846.00
410.19	3875.99
410.41	3896.55
410.62	3913.18
410.84	3888.52
411.05	3918.34
411.27	3955.12
411.48	3931.85
411.70	3966.01
411.91	3968.23
412.12	3961.92
412.34	3953.81
412.55	3986.08
412.77	3972.98
412.98	4028.03
413.20	4004.02
413.41	4013.45
413.63	4032.37
413.84	4022.87
414.06	4059.16
414.27	4057.52
414.49	4057.19
414.70	4073.33
414.92	4056.86
415.13	4052.36
415.35	4066.45
415.56	4085.04
415.78	4070.38
415.99	4074.31
416.21	4078.32
416.42	4085.45
416.63	4112.65
416.85	4100.44
417.06	4093.89
417.28	4069.72
417.49	4089.96
417.71	4093.97
417.92	4075.87
418.14	4086.11
418.35	4098.31
418.57	4094.46
418.78	4109.54
418.99	4103.88
419.21	4121.41
419.42	4107.65
419.64	4104.46
419.85	4126.00
420.07	4130.51
420.28	4115.11
420.50	4106.42
420.71	4118.87
420.92	4102.00
421.14	4140.99
421.35	4130.02
421.57	4130.34
421.78	4137.63
422.00	4147.05
422.21	4155.41
422.42	4124.04
422.64	4131.08
422.85	4182.36
423.07	4181.21
423.28	4159.26
423.50	4177.86
423.71	4196.04
423.92	4199.56
424.14	4200.38
424.35	4202.19
424.57	4210.95
424.78	4234.13
424.99	4230.28
425.21	4250.68
425.42	4235.69
425.64	4251.58
425.85	4267.97
426.06	4265.51
426.28	4303.68
426.49	4300.98
426.71	4314.82
426.92	4302.05
427.13	4356.44
427.35	4381.92
427.56	4396.50
427.78	4397.40
427.99	4413.29
428.20	4454.33
428.42	4459.41
428.63	4480.46
428.84	4454.82
429.06	4508.73
429.27	4530.52
429.49	4529.62
429.70	4573.77
429.91	4572.30
430.13	4601.46
430.34	4623.99
430.56	4664.70
430.77	4689.19
430.98	4663.80
431.20	4744.00
431.41	4754.40
431.62	4788.48
431.84	4778.07
432.05	4840.50
432.26	4837.38
432.48	4849.43
432.69	4938.96
432.91	4957.72
433.12	4966.98
433.33	4997.86
433.55	5088.47
433.76	5094.04
433.97	5067.90
434.19	5132.62
434.40	5201.51
434.61	5205.61
434.83	5237.48
435.04	5218.14
435.25	5317.18
435.47	5313.50
435.68	5329.47
435.89	5435.96
436.11	5433.02
436.32	5467.75
436.53	5465.46
436.75	5486.51
436.96	5515.67
437.17	5530.09
437.39	5563.59
437.60	5602.34
437.81	5653.29
438.03	5660.18
438.24	5700.07
438.45	5780.43
438.67	5737.02
438.88	5840.72
439.09	5856.54
439.31	5875.95
439.52	5917.81
439.73	5879.23
439.94	5854.24
440.16	5935.18
440.37	5879.39
440.58	5998.09
440.80	6012.10
441.01	5968.76
441.22	6127.03
441.44	6083.20
441.65	6016.85
441.86	6070.26
442.08	6085.50
442.29	6122.44
442.50	6135.88
442.71	6107.62
442.93	6111.88
443.14	6102.62
443.35	6208.29
443.57	6096.97
443.78	6178.07
443.99	6173.23
444.20	6134.32
444.42	6176.59
444.63	6153.65
444.84	6177.49
445.06	6206.98
445.27	6140.30
445.48	6140.55
445.69	6175.94
445.91	6155.21
446.12	6113.43
446.33	6169.38
446.54	6238.36
446.76	6116.87
446.97	6137.93
447.18	6124.98
447.39	6189.78
447.61	6189.53
447.82	6169.46
448.03	6138.58
448.25	6212.72
448.46	6207.39
448.67	6228.94
448.88	6157.34
449.10	6227.46
449.31	6216.57
449.52	6164.14
449.73	6222.14
449.95	6286.20
450.16	6193.79
450.37	6277.19
450.58	6368.69
450.79	6196.91
451.01	6250.40
451.22	6216.40
451.43	6211.41
451.64	6293.16
451.86	6288.90
452.07	6294.64
452.28	6325.60
452.49	6418.42
452.71	6322.08
452.92	6306.68
453.13	6353.21
453.34	6391.38
453.55	6430.95
453.77	6455.93
453.98	6468.06
454.19	6412.03
454.40	6498.04
454.62	6523.68
454.83	6449.14
455.04	6566.12
455.25	6494.76
455.46	6698.66
455.68	6601.59
455.89	6609.29
456.10	6659.42
456.31	6680.31
456.52	6713.49
456.74	6727.99
456.95	6813.18
457.16	6791.47
457.37	6872.57
457.58	6876.01
457.80	6887.07
458.01	6913.12
458.22	7148.64
458.43	7025.02
458.64	7086.63
458.86	7030.19
459.07	7111.69
459.28	7116.86
459.49	7222.86
459.70	7365.72
459.91	7353.76
460.13	7338.94
460.34	7414.38
460.55	7438.06
460.76	7541.19
460.97	7617.87
461.19	7603.37
461.40	7822.67
461.61	7753.61
461.82	7843.23
462.03	7913.76
462.24	7941.12
462.46	7938.66
462.67	8013.21
462.88	8130.60
463.09	8140.10
463.30	8315.57
463.51	8219.56
463.72	8464.01
463.94	8525.37
464.15	8538.72
464.36	8545.35
464.57	8793.81
464.78	8828.63
464.99	8889.82
465.20	8884.17
465.42	9091.92
465.63	9151.96
465.84	9190.96
466.05	9328.74
466.26	9424.67
466.47	9532.23
466.68	9550.42
466.90	9738.09
467.11	9727.93
467.32	9922.98
467.53	10053.48
467.74	9976.31
467.95	10113.12
468.16	10320.45
468.37	10453.49
468.59	10499.28
468.80	10717.92
469.01	10660.82
469.22	10846.45
469.43	11105.15
469.64	10985.88
469.85	11226.23
470.06	11260.06
470.28	11505.82
470.49	11316.99
470.70	11590.44
470.91	11848.32
471.12	11719.95
471.33	12059.26
471.54	11980.94
471.75	12092.27
471.96	12397.58
472.17	12382.51
472.39	12692.82
472.60	12475.65
472.81	12819.87
473.02	12782.68
473.23	13071.77
473.44	13161.39
473.65	13060.06
473.86	13223.32
474.07	13324.33
474.28	13342.60
474.49	13727.29
474.71	13666.10
474.92	13830.75
475.13	13773.82
475.34	13863.36
475.55	13955.92
475.76	14074.54
475.97	14374.04
476.18	14269.35
476.39	14507.40
476.60	14622.99
476.81	14549.10
477.02	14736.28
477.23	14721.37
477.44	14718.10
477.65	14880.30
477.87	15030.70
478.08	15044.79
478.29	15076.49
478.50	15368.78
478.71	15210.92
478.92	15342.15
479.13	15371.56
479.34	15360.75
479.55	15478.79
479.76	15394.17
479.97	15461.67
480.18	15825.06
480.39	15528.93
480.60	15816.71
480.81	15847.02
481.02	15876.84
481.23	15826.62
481.44	16049.28
481.65	16143.40
481.86	16247.03
482.07	15865.61
482.28	16493.19
482.49	16208.12
482.71	16250.22
482.92	16360.57
483.13	16475.74
483.34	16292.66
483.55	16480.00
483.76	16402.26
483.97	16605.34
484.18	16481.56
484.39	16695.86
484.60	16533.83
484.81	16834.22
485.02	16695.78
485.23	16850.85
485.44	16898.04
485.65	16975.45
485.86	16800.31
486.07	17059.99
486.28	16969.47
486.49	17129.21
486.70	17163.29
486.91	17286.49
487.12	17147.31
487.33	17104.55
487.54	17417.16
487.75	17362.76
487.96	17452.95
488.17	17335.32
488.38	17542.65
488.59	17553.96
488.80	17572.64
489.01	17582.55
489.22	17808.73
489.43	17723.37
489.64	17626.05
489.85	17981.82
490.06	17696.66
490.26	17954.30
490.47	17904.57
490.68	18166.71
490.89	18285.33
491.10	18005.00
491.31	18251.09
491.52	18463.50
491.73	18413.61
491.94	18421.97
492.15	18610.55
492.36	18671.25
492.57	18681.33
492.78	18688.21
492.99	18777.91
493.20	18955.10
493.41	18989.83
493.62	19087.97
493.83	19134.91
494.04	19217.97
494.25	19430.55
494.46	19418.59
494.67	19410.98
494.88	19596.85
495.08	19681.39
495.29	19779.61
495.50	20036.75
495.71	19907.08
495.92	20181.67
496.13	20172.74
496.34	20201.49
496.55	20303.89
496.76	20656.55
496.97	20392.12
497.18	20742.48
497.39	20708.08
497.60	21169.44
497.81	20925.65
498.02	21310.51
498.22	21064.34
498.43	21547.50
498.64	21655.79
498.85	21660.63
499.06	21778.35
499.27	22193.76
499.48	21753.69
499.69	22170.33
499.90	22361.03
500.11	22622.52
500.32	22901.94
500.52	22707.88
500.73	23179.40
500.94	23241.82
501.15	23404.68
501.36	23491.18
501.57	23523.54
501.78	23791.01
501.99	24070.10
502.20	24164.64
502.41	24286.62
502.61	24370.17
502.82	24739.38
503.03	24729.22
503.24	25165.19
503.45	25059.52
503.66	25517.04
503.87	25550.70
504.08	25919.42
504.28	25927.69
504.49	26165.18
504.70	26399.79
504.91	26636.95
505.12	26580.18
505.33	27174.09
505.54	27245.11
505.75	27461.46
505.95	27787.00
506.16	27821.16
506.37	27804.86
506.58	28450.14
506.79	28133.19
507.00	28762.16
507.21	28655.26
507.41	28901.59
507.62	29223.61
507.83	29802.61
508.04	29478.79
508.25	30125.05
508.46	29989.96
508.67	30576.09
508.87	30463.54
509.08	31056.63
509.29	31005.76
509.50	31265.27
509.71	31565.59
509.92	31735.49
510.12	31705.51
510.33	32108.55
510.54	32042.36
510.75	32418.85
510.96	32679.52
511.17	33201.42
511.37	33170.62
511.58	33570.96
511.79	33402.53
512.00	33516.40
512.21	34095.81
512.42	34180.76
512.62	34414.07
512.83	34717.17
513.04	34612.39
513.25	35174.35
513.46	34494.51
513.66	35578.38
513.87	35400.94
514.08	35828.07
514.29	35707.65
514.50	35853.22
514.71	36320.97
514.91	36157.46
515.12	36232.34
515.33	36613.42
515.54	36549.69
515.75	37071.59
515.95	36907.76
516.16	37003.52
516.37	37481.51
516.58	37543.77
516.78	37407.30
516.99	37710.31
517.20	37648.38
517.41	37714.98
517.62	38020.54
517.82	37859.32
518.03	38305.54
518.24	38658.77
518.45	38001.29
518.66	38472.57
518.86	38169.22
519.07	38658.69
519.28	38004.32
519.49	38707.84
519.69	38725.29
519.90	38868.48
520.11	38946.30
520.32	38732.41
520.52	39008.15
520.73	38570.95
520.94	39052.96
521.15	38890.93
521.36	38445.37
521.56	39157.57
521.77	38499.93
521.98	39076.72
522.19	38510.58
522.39	38784.51
522.60	38587.25
522.81	38674.25
523.02	38454.38
523.22	38786.64
523.43	38829.82
523.64	38615.93
523.84	38573.41
524.05	38827.44
524.26	38647.05
524.47	38205.68
524.67	38369.68
524.88	38446.03
525.09	38682.61
525.30	38266.87
525.50	38091.65
525.71	38034.30
525.92	38053.31
526.13	38254.01
526.33	37941.24
526.54	37598.17
526.75	37744.23
526.95	37973.60
527.16	37139.26
527.37	37568.92
527.58	37570.72
527.78	37426.38
527.99	37657.31
528.20	37682.13
528.40	37154.66
528.61	36898.58
528.82	37179.32
529.03	36860.08
529.23	36704.35
529.44	36963.71
529.65	36773.33
529.85	36764.89
530.06	36593.92
530.27	36543.30
530.47	36101.35
530.68	36734.66
530.89	35964.95
531.09	36422.22
531.30	36108.39
531.51	35746.80
531.72	36186.62
531.92	35932.35
532.13	36201.21
532.34	35857.72
532.54	35834.29
532.75	35809.31
532.96	35664.72
533.16	35858.79
533.37	35858.29
533.58	35462.79
533.78	35707.65
533.99	35588.62
534.20	35169.77
534.40	35288.22
534.61	35336.96
534.82	35340.40
535.02	35311.08
535.23	35288.63
535.44	35364.49
535.64	35147.65
535.85	35175.67
536.06	35013.47
536.26	34931.63
536.47	34887.80
536.68	35233.50
536.88	34709.55
537.09	35128.32
537.29	34656.38
537.50	35261.43
537.71	34812.11
537.91	35029.77
538.12	35068.35
538.33	34729.86
538.53	34938.84
538.74	34993.31
538.95	34924.58
539.15	34690.79
539.36	34958.91
539.56	35117.18
539.77	34681.61
539.98	34696.52
540.18	34955.80
540.39	34623.86
540.60	34841.93
540.80	35066.06
541.01	34928.35
541.21	34902.96
541.42	35021.99
541.63	34870.35
541.83	35085.55
542.04	35084.24
542.25	34969.64
542.45	35122.34
542.66	35116.36
542.86	35292.24
543.07	34571.68
543.28	35325.17
543.48	35131.92
543.69	35486.71
543.89	35252.59
544.10	35702.24
544.31	35560.60
544.51	35371.62
544.72	35584.85
544.92	35549.54
545.13	35849.37
545.33	35794.23
545.54	35644.08
545.75	35889.18
545.95	35675.45
546.16	35804.23
546.36	36223.73
546.57	35684.63
546.78	35324.51
546.98	35786.29
547.19	35353.84
547.39	36141.73
547.60	36469.24
547.80	36924.14
548.01	37026.70
548.22	36730.89
548.42	36823.13
548.63	37139.67
548.83	36995.65
549.04	37261.15
549.24	37004.42
549.45	37344.38
549.65	37632.65
549.86	37182.27
550.07	37514.04
550.27	37889.88
550.48	38100.90
550.68	38092.63
550.89	38239.34
551.09	38472.16
551.30	38392.37
551.50	38569.97
551.71	38456.10
551.91	38589.14
552.12	38737.66
552.33	39111.70
552.53	38827.11
552.74	39434.05
552.94	39549.64
553.15	39506.38
553.35	39811.69
553.56	39629.26
553.76	40228.25
553.97	40007.89
554.17	40291.33
554.38	40981.74
554.58	40466.63
554.79	41141.89
554.99	40689.37
555.20	40899.49
555.40	41498.07
555.61	41272.47
555.81	41128.70
556.02	42114.92
556.22	41996.79
556.43	41978.28
556.63	42337.99
556.84	42539.83
557.04	43109.82
557.25	42629.12
557.45	43070.75
557.66	43171.51
557.86	43196.74
558.07	43827.19
558.27	43645.98
558.48	43813.51
558.68	43937.94
558.89	44136.51
559.09	44259.39
559.30	44172.31
559.50	44540.94
559.71	44343.11
559.91	45222.92
560.12	45105.45
560.32	45181.63
560.53	45569.27
560.73	45416.25
560.94	45962.40
561.14	45676.67
561.35	46438.18
561.55	46408.86
561.76	46786.42
561.96	46439.33
562.17	47022.59
562.37	47322.58
562.57	47191.26
562.78	47290.22
562.98	47677.29
563.19	47755.03
563.39	48077.46
563.60	48188.62
563.80	47744.30
564.01	48559.39
564.21	48367.29
564.42	48395.55
564.62	48568.40
564.82	49232.35
565.03	49029.35
565.23	49203.19
565.44	49642.68
565.64	49621.55
565.85	50018.85
566.05	49869.51
566.25	50261.33
566.46	50058.58
566.66	50344.31
566.87	50408.78
567.07	50464.33
567.28	50663.55
567.48	51162.19
567.68	50497.34
567.89	51665.01
568.09	51157.44
568.30	51231.74
568.50	51641.99
568.71	51542.38
568.91	51913.22
569.11	51582.76
569.32	51803.94
569.52	51976.87
569.73	51460.29
569.93	52103.03
570.13	51973.27
570.34	51862.02
570.54	52337.15
570.75	52124.57
570.95	52262.77
571.15	52247.29
571.36	52795.82
571.56	52324.21
571.77	52315.36
571.97	51990.31
572.17	52831.12
572.38	52719.88
572.58	53034.03
572.79	52874.21
572.99	52873.06
573.19	52680.06
573.40	52477.89
573.60	52705.62
573.81	52476.41
574.01	52797.37
574.21	52671.54
574.42	52699.72
574.62	52602.16
574.82	53135.61
575.03	52707.83
575.23	53144.22
575.43	52640.50
575.64	52602.24
575.84	53049.76
576.05	52514.01
576.25	52669.41
576.45	52398.59
576.66	52830.88
576.86	52290.05
577.06	52568.33
577.27	52277.76
577.47	52359.84
577.67	52291.44
577.88	51811.97
578.08	52302.01
578.28	52384.75
578.49	52099.51
578.69	52192.89
578.89	51889.30
579.10	51940.17
579.30	52396.46
579.50	51866.12
579.71	51372.97
579.91	51873.57
580.11	51428.51
580.32	51157.85
580.52	51150.07
580.72	51578.99
580.93	50871.79
581.13	50813.87
581.33	51086.74
581.54	50574.34
581.74	50618.09
581.94	50570.90
582.15	50879.24
582.35	50322.69
582.55	50311.55
582.76	49810.45
582.96	50213.24
583.16	49722.88
583.37	49878.03
583.57	49420.52
583.77	49818.15
583.97	48659.82
584.18	49604.75
584.38	49286.99
584.58	48808.67
584.79	49123.73
584.99	48807.36
585.19	48532.52
585.40	48325.67
585.60	48492.30
585.80	48009.22
586.00	48264.32
586.21	48210.66
586.41	48002.01
586.61	48011.43
586.82	47785.01
587.02	47405.07
587.22	47485.92
587.42	46803.79
587.63	47370.17
587.83	46492.09
588.03	46802.56
588.23	46443.92
588.44	46578.59
588.64	46155.56
588.84	46214.30
589.05	46282.05
589.25	46155.81
589.45	45940.77
589.65	45756.13
589.86	45864.01
590.06	45734.58
590.26	45475.06
590.46	45582.62
590.67	44893.93
590.87	45355.63
591.07	45275.76
591.27	44666.85
591.48	44940.87
591.68	44278.48
591.88	45020.42
592.08	44149.78
592.29	44521.53
592.49	44338.44
592.69	44355.64
592.89	43933.52
593.10	43963.01
593.30	43762.55
593.50	44219.41
593.70	43169.46
593.90	43937.53
594.11	43653.19
594.31	43606.83
594.51	43720.12
594.71	43597.24
594.92	43519.42
595.12	42999.32
595.32	43017.01
595.52	43134.32
595.72	42479.79
595.93	43071.49
596.13	42739.47
596.33	42397.87
596.53	42804.10
596.73	42571.62
596.94	42304.07
597.14	42540.49
597.34	42242.88
597.54	42406.31
597.74	42019.24
597.95	42072.98
598.15	41984.92
598.35	42007.28
598.55	42053.48
598.75	41799.29
598.96	42074.45
599.16	41659.21
599.36	41712.95
599.56	41459.00
599.76	41328.26
599.97	41719.66
600.17	41480.71
600.37	41584.66
600.57	40952.82
600.77	41660.93
600.97	41277.38
601.18	41774.38
601.38	41266.98
601.58	41487.59
601.78	41178.18
601.98	40926.44
602.18	41018.44
602.39	41198.41
602.59	40902.85
602.79	40711.49
602.99	40752.12
603.19	40768.67
603.39	40657.91
603.60	40711.08
603.80	40789.80
604.00	40695.51
604.20	40657.91
604.40	40870.58
604.60	40590.33
604.80	40499.97
605.01	40615.73
605.21	40393.81
605.41	40294.77
605.61	40063.92
605.81	40396.02
606.01	40724.27
606.21	40325.49
606.42	40713.37
606.62	40270.36
606.82	40704.85
607.02	40247.17
607.22	40430.59
607.42	40586.81
607.62	40096.77
607.82	40341.87
608.03	40436.49
608.23	40388.73
608.43	40269.54
608.63	40596.56
608.83	40530.28
609.03	40422.64
609.23	40493.26
609.43	40560.35
609.63	40423.71
609.84	40307.71
610.04	40844.36
610.24	40801.19
610.44	40799.55
610.64	40396.51
610.84	40688.72
611.04	41043.18
611.24	40861.97
611.44	40396.18
611.64	40815.20
611.85	40868.36
612.05	40718.37
612.25	40771.70
612.45	40565.59
612.65	40898.26
612.85	40921.77
613.05	40625.47
613.25	41078.16
613.45	40850.67
613.65	41036.95
613.85	40753.51
614.05	41229.46
614.25	41440.65
614.46	41252.40
614.66	41051.62
614.86	41024.75
615.06	41179.49
615.26	41519.29
615.46	40910.39
615.66	41636.35
615.86	41553.70
616.06	41198.82
616.26	41379.29
616.46	42023.42
616.66	41572.86
616.86	42034.64
617.06	41711.06
617.26	42120.16
617.46	41937.40
617.66	41772.01
617.86	41724.99
618.07	42066.34
618.27	42027.35
618.47	42070.85
618.67	42136.38
618.87	42365.43
619.07	42178.74
619.27	42233.13
619.47	42171.12
619.67	42581.28
619.87	42293.50
620.07	42810.66
620.27	42982.60
620.47	42737.26
620.67	43114.66
620.87	43033.72
621.07	43248.35
621.27	43158.57
621.47	42926.16
621.67	43346.90
621.87	43112.94
622.07	43559.80
622.27	43576.02
622.47	43490.50
622.67	43651.63
622.87	43495.58
623.07	44044.68
623.27	44413.48
623.47	43681.29
623.67	44228.83
623.87	44461.24
624.07	44384.40
624.27	44139.38
624.47	44373.83
624.67	44442.97
624.87	44547.01
625.07	44217.69
625.27	44857.23
625.47	44529.64
625.67	44628.68
625.87	44935.30
626.07	44979.21
626.27	45129.12
626.47	45136.99
626.67	45205.14
626.87	45033.60
627.07	45604.09
627.27	45573.69
627.47	45700.42
627.67	45627.27
627.87	45699.77
628.07	46048.99
628.27	46034.49
628.47	45754.82
628.67	46326.53
628.86	46367.90
629.06	46194.72
629.26	46153.19
629.46	46632.08
629.66	46540.42
629.86	46223.64
630.06	46802.07
630.26	46827.13
630.46	47168.98
630.66	46731.45
630.86	46880.79
631.06	46957.63
631.26	46911.10
631.46	47444.88
631.66	47568.66
631.86	47341.17
632.06	47736.10
632.26	47468.39
632.45	47452.17
632.65	47557.19
632.85	47680.48
633.05	47676.38
633.25	48031.42
633.45	47798.28
633.65	48025.52
633.85	48719.29
634.05	47893.63
634.25	48350.41
634.45	48452.56
634.65	48710.85
634.84	48495.90
635.04	48793.27
635.24	48552.51
635.44	49015.59
635.64	48886.73
635.84	49106.69
636.04	48894.11
636.24	48843.56
636.44	49079.73
636.64	48531.62
636.84	49459.18
637.03	48924.83
637.23	49219.16
637.43	49269.13
637.63	49166.57
637.83	49471.22
638.03	49613.76
638.23	49105.29
638.43	49795.46
638.62	50086.43
638.82	49105.21
639.02	49862.80
639.22	49532.01
639.42	49838.96
639.62	49586.65
639.82	49826.42
640.02	49890.73
640.21	50007.55
640.41	49509.81
640.61	49974.94
640.81	49867.63
641.01	49730.01
641.21	49745.57
641.41	50316.38
641.61	49719.36
641.80	49970.11
642.00	50170.40
642.20	50204.64
642.40	49589.27
642.60	50116.42
642.80	50350.87
642.99	49931.77
643.19	50422.55
643.39	49955.69
643.59	50342.02
643.79	50206.28
643.99	50457.44
644.19	50191.45
644.38	49703.71
644.58	49859.68
644.78	49710.18
644.98	49596.23
645.18	49836.09
645.38	50054.81
645.57	49569.69
645.77	49550.03
645.97	49378.00
646.17	49721.98
646.37	49572.64
646.56	49431.41
646.76	49642.03
646.96	49645.79
647.16	49530.94
647.36	49718.37
647.55	49516.36
647.75	49598.20
647.95	49399.79
648.15	49638.67
648.35	49416.58
648.55	49561.17
648.74	49340.89
648.94	49245.70
649.14	49535.20
649.34	49198.11
649.54	49135.85
649.73	49266.67
649.93	48874.69
650.13	48910.74
650.33	48533.75
650.52	48807.44
650.72	48926.30
650.92	48424.14
651.12	48175.60
651.32	48441.59
651.51	48542.84
651.71	48419.39
651.91	48260.79
652.11	48006.60
652.30	48006.93
652.50	48477.47
652.70	48410.13
652.90	47980.63
653.10	48118.66
653.29	47774.52
653.49	48007.75
653.69	47376.48
653.89	47462.99
654.08	47206.50
654.28	47698.83
654.48	47250.57
654.68	47348.30
654.87	46951.16
655.07	46853.59
655.27	47103.61
655.47	46566.96
655.66	46446.37
655.86	46214.22
656.06	46589.65
656.26	45882.61
656.45	46121.73
656.65	45996.15
656.85	45802.66
657.04	45319.09
657.24	45240.53
657.44	45086.28
657.64	45383.72
657.83	44517.19
658.03	45101.35
658.23	44886.64
658.43	44718.38
658.62	44762.29
658.82	44446.90
659.02	44367.28
659.21	44437.07
659.41	44175.18
659.61	44493.76
659.81	44070.49
660.00	43668.35
660.20	43706.52
660.40	43342.96
660.59	43349.76
660.79	42895.69
660.99	43165.53
661.19	43018.32
661.38	43073.53
661.58	42381.81
661.78	42790.83
661.97	42494.29
662.17	43202.15
662.37	42434.57
662.56	42448.00
662.76	42331.19
662.96	42323.24
663.15	42203.88
663.35	41999.09
663.55	41727.45
663.74	41343.82
663.94	41524.12
664.14	41117.23
664.33	41308.92
664.53	41170.07
664.73	41375.60
664.93	40710.59
665.12	40866.97
665.32	40610.56
665.52	40549.78
665.71	40212.03
665.91	40248.40
666.10	39889.76
666.30	40145.18
666.50	39714.70
666.69	39636.31
666.89	39832.25
667.09	39875.92
667.28	39512.77
667.48	39297.08
667.68	39327.88
667.87	39182.97
668.07	38871.18
668.27	39144.55
668.46	39090.89
668.66	38857.18
668.86	39067.71
669.05	38704.32
669.25	38728.24
669.44	38326.83
669.64	38168.65
669.84	38045.61
670.03	38409.49
670.23	37929.45
670.43	37740.38
670.62	37650.51
670.82	37457.59
671.01	37562.70
671.21	37143.44
671.41	37187.18
671.60	37294.49
671.80	37302.11
672.00	36988.28
672.19	37156.87
672.39	36990.82
672.58	36768.74
672.78	36543.79
672.98	36786.19
673.17	36547.89
673.37	35997.64
673.56	36194.65
673.76	36166.15
673.96	36377.91
674.15	36007.80
674.35	36154.59
674.54	35959.71
674.74	35856.00
674.94	35678.65
675.13	35806.85
675.33	35308.70
675.52	35573.22
675.72	35395.70
675.91	35142.32
676.11	35247.59
676.31	34778.44
676.50	34881.82
676.70	34844.96
676.89	34878.71
677.09	34852.99
677.28	34692.26
677.48	34185.51
677.68	34365.16
677.87	34200.34
678.07	33972.69
678.26	34134.56
678.46	34010.78
678.65	33902.98
678.85	34058.46
679.04	33602.83
679.24	33749.38
679.44	33543.43
679.63	33657.55
679.83	33497.64
680.02	33563.34
680.22	33294.32
680.41	33394.42
680.61	33307.75
680.80	33202.82
681.00	33295.96
681.19	33229.19
681.39	33063.39
681.59	32910.37
681.78	32666.58
681.98	32942.23
682.17	32390.76
682.37	32612.67
682.56	32306.54
682.76	32667.89
682.95	32474.97
683.15	32423.20
683.34	32382.65
683.54	32509.70
683.73	32569.17
683.93	32257.31
684.12	32378.47
684.32	32443.68
684.51	31942.25
684.71	32119.52
684.90	31950.93
685.10	31934.96
685.29	31762.68
685.49	32001.31
685.68	32001.07
685.88	31866.15
686.07	31749.91
686.27	31999.51
686.46	31805.20
686.66	31579.35
686.85	31658.98
687.05	31363.82
687.24	31291.08
687.44	31455.82
687.63	31355.55
687.83	30940.38
688.02	31242.50
688.22	31244.47
688.41	31048.68
688.61	31084.73
688.80	31105.37
689.00	30886.56
689.19	30727.97
689.39	30999.12
689.58	30946.12
689.77	30850.36
689.97	31047.29
690.16	30719.12
690.36	30414.06
690.55	30340.00
690.75	30731.49
690.94	30404.47
691.14	30490.90
691.33	30245.06
691.53	30506.13
691.72	30324.85
691.91	30326.24
692.11	30253.66
692.30	30330.09
692.50	30375.14
692.69	30110.55
692.89	30163.30
693.08	30061.56
693.28	30199.43
693.47	30295.77
693.66	30219.91
693.86	30175.02
694.05	29992.91
694.25	29982.43
694.44	30089.66
694.64	29955.72
694.83	29904.77
695.02	29938.60
695.22	30107.52
695.41	29767.64
695.61	29761.57
695.80	29879.13
695.99	29829.48
696.19	29866.02
696.38	29891.82
696.58	29631.32
696.77	29989.88
696.96	29867.99
697.16	29751.74
697.35	29666.55
697.55	29637.96
697.74	29531.30
697.93	29813.92
698.13	29511.23
698.32	29673.35
698.52	29528.19
698.71	29245.32
698.90	29709.15
699.10	29561.20
699.29	29673.43
699.49	29756.25
699.68	29466.50
699.87	29387.94
700.07	29645.25
700.26	29540.64
700.45	29455.44
700.65	29430.38
700.84	29762.15
701.04	29601.83
701.23	29797.86
701.42	29650.16
701.62	29574.23
701.81	29498.61
702.00	29421.69
702.20	29196.09
702.39	29248.19
702.58	29373.77
702.78	29197.64
702.97	29094.43
703.17	29166.43
703.36	29216.08
703.55	29194.86
703.75	29058.46
703.94	29256.63
704.13	29145.46
704.33	29297.50
704.52	29417.11
704.71	29272.03
704.91	29258.67
705.10	29083.78
705.29	29174.63
705.49	29319.70
705.68	29310.12
705.87	29351.24
706.07	29116.95
706.26	29491.49
706.45	29161.76
706.65	29083.37
706.84	29453.15
707.03	29607.32
707.23	29126.95
707.42	29082.06
707.61	29452.00
707.80	29102.78
708.00	29141.94
708.19	29086.81
708.38	29376.96
708.58	28949.43
708.77	29355.17
708.96	29030.28
709.16	29039.87
709.35	29582.25
709.54	29244.58
709.74	29246.88
709.93	29076.49
710.12	29477.81
710.31	29617.97
710.51	29395.40
710.70	29449.71
710.89	29518.60
711.09	29125.88
711.28	29189.21
711.47	29368.69
711.66	29226.32
711.86	29308.07
712.05	29422.02
712.24	29471.99
712.43	29336.09
712.63	29047.49
712.82	29450.61
713.01	29334.61
713.21	29135.55
713.40	29286.94
713.59	29466.83
713.78	29062.97
713.98	29360.91
714.17	29333.96
714.36	29379.26
714.55	29261.71
714.75	29522.94
714.94	29604.04
715.13	29773.29
715.32	29378.52
715.52	29571.36
715.71	29372.13
715.90	29388.35
716.09	29383.03
716.29	29659.91
716.48	29415.63
716.67	29116.55
716.86	29408.34
717.06	29368.94
717.25	29569.23
717.44	29604.54
717.63	29669.99
717.82	29276.12
718.02	29507.46
718.21	29692.52
718.40	29741.75
718.59	29707.10
718.79	29659.09
718.98	29755.76
719.17	30029.45
719.36	30026.74
719.55	29755.10
719.75	29634.35
719.94	29589.95
720.13	29675.39
720.32	29642.87
720.51	29471.34
720.71	29499.84
720.90	29366.15
721.09	29703.00
721.28	29523.52
721.47	29900.84
721.67	29795.24
721.86	29723.48
722.05	29697.35
722.24	29462.49
722.43	29729.87
722.63	29543.34
722.82	29747.89
723.01	29819.08
723.20	29614.04
723.39	29547.03
723.58	29816.30
723.78	29456.18
723.97	29915.66
724.16	29658.68
724.35	29805.40
724.54	29599.37
724.73	29916.24
724.93	29688.91
725.12	29966.86
725.31	29498.94
725.50	29808.35
725.69	29911.57
725.88	29765.83
726.08	29554.89
726.27	30022.89
726.46	29451.43
726.65	30079.25
726.84	29619.53
727.03	29751.74
727.23	29991.03
727.42	29753.14
727.61	29798.60
727.80	29688.67
727.99	29978.74
728.18	29945.24
728.37	29820.23
728.56	29660.24
728.76	29568.98
728.95	29731.10
729.14	29697.35
729.33	29806.79
729.52	29834.32
729.71	29930.16
729.90	30030.51
730.09	29851.52
730.29	30108.25
730.48	29692.68
730.67	30006.35
730.86	29724.96
731.05	30028.63
731.24	29842.84
731.43	29832.60
731.62	29647.79
731.81	29644.59
732.01	30031.00
732.20	29705.05
732.39	29864.79
732.58	29884.12
732.77	29415.55
732.96	29784.76
733.15	29872.16
733.34	29586.84
733.53	29719.55
733.72	29876.10
733.92	29775.50
734.11	29804.25
734.30	29836.61
734.49	30004.22
734.68	29714.22
734.87	29627.39
735.06	29754.61
735.25	29850.95
735.44	29715.86
735.63	29843.00
735.82	29937.29
736.01	29811.54
736.20	29753.38
736.40	30004.63
736.59	29828.26
736.78	29884.53
736.97	29435.21
737.16	29624.52
737.35	29591.67
737.54	29689.89
737.73	29506.15
737.92	29708.00
738.11	29752.64
738.30	29647.38
738.49	29604.78
738.68	29569.72
738.87	29656.47
739.06	29465.85
739.25	29457.25
739.44	29427.43
739.63	29324.45
739.82	29128.10
740.01	29391.30
740.20	29164.88
740.39	29305.61
740.59	29319.87
740.78	29424.40
740.97	29266.87
741.16	29078.13
741.35	29351.08
741.54	29236.88
741.73	29273.91
741.92	29131.04
742.11	29216.65
742.30	29088.20
742.49	28838.84
742.68	29142.60
742.87	28967.04
743.06	28668.37
743.25	29003.33
743.44	28726.20
743.63	28934.69
743.82	28758.40
744.01	28763.64
744.20	28613.81
744.39	28805.58
744.58	28653.62
744.77	28445.30
744.96	28249.68
745.15	28522.88
745.34	28263.36
745.53	28325.46
745.72	28108.78
745.91	28131.72
746.10	28004.91
746.29	28283.68
746.48	28188.49
746.67	28257.79
746.86	28242.64
747.04	28122.30
747.23	28013.67
747.42	28219.86
747.61	27936.42
747.80	28216.50
747.99	27650.85
748.18	27988.93
748.37	27766.61
748.56	27409.03
748.75	27704.35
748.94	27553.78
749.13	27721.30
749.32	27479.32
749.51	27552.80
749.70	27579.01
749.89	27405.84
750.08	27498.73
750.27	27241.67
750.46	27490.87
750.65	27707.62
750.84	27273.46
751.02	27402.07
751.21	27158.20
751.40	27210.13
751.59	27262.56
751.78	27104.05
751.97	27089.71
752.16	27000.75
752.35	27179.58
752.54	26847.07
752.73	27021.88
752.92	26766.13
753.11	26724.85
753.30	26862.63
753.49	26869.43
753.67	26628.02
753.86	26484.74
754.05	26543.72
754.24	26350.80
754.43	26418.63
754.62	26364.40
754.81	26040.66
755.00	26129.13
755.19	26014.45
755.38	25719.29
755.56	25924.74
755.75	26151.82
755.94	25880.51
756.13	25934.17
756.32	25885.51
756.51	25741.82
756.70	25809.49
756.89	25687.26
757.08	25581.83
757.26	25503.44
757.45	25542.76
757.64	25304.62
757.83	25644.66
758.02	25485.33
758.21	25434.79
758.40	25528.01
758.59	25398.66
758.77	25141.27
758.96	25209.84
759.15	25236.71
759.34	24940.00
759.53	24954.99
759.72	24879.46
759.91	24630.43
760.09	24752.24
760.28	24744.30
760.47	24398.27
760.66	24645.17
760.85	24245.00
761.04	24515.99
761.23	24323.89
761.41	24289.56
761.60	24368.53
761.79	24276.95
761.98	24179.47
762.17	24410.07
762.36	24148.42
762.54	24353.79
762.73	24245.82
762.92	23974.26
763.11	24158.66
763.30	24184.46
763.49	23991.63
763.67	23842.70
763.86	23795.02
764.05	23781.59
764.24	23628.07
764.43	23793.79
764.61	23462.19
764.80	23564.67
764.99	23672.80
765.18	23328.08
765.37	23420.08
765.55	23380.43
765.74	23215.61
765.93	23057.92
766.12	23248.05
766.31	23132.95
766.49	23123.78
766.68	23172.36
766.87	23006.80
767.06	22971.00
767.25	22956.09
767.43	22854.92
767.62	22744.09
767.81	22817.89
768.00	22610.56
768.19	22505.37
768.37	22613.34
768.56	22445.66
768.75	22500.38
768.94	22442.62
769.12	22250.03
769.31	22154.02
769.50	22111.92
769.69	22119.62
769.88	21917.28
770.06	22243.64
770.25	22077.10
770.44	21908.27
770.63	22075.63
770.81	21878.86
771.00	21841.01
771.19	21774.25
771.38	21790.72
771.56	21891.97
771.75	21557.90
771.94	21694.62
772.13	21595.01
772.31	21437.97
772.50	21638.76
772.69	21479.01
772.88	21622.70
773.06	21386.53
773.25	21496.14
773.44	21475.66
773.62	21248.00
773.81	21247.76
774.00	21079.33
774.19	21100.30
774.37	21006.67
774.56	21166.99
774.75	20853.16
774.94	20983.49
775.12	20786.47
775.31	20890.67
775.50	20826.20
775.68	20730.85
775.87	20735.36
776.06	20572.34
776.25	20708.16
776.43	20510.33
776.62	20610.76
776.81	20336.82
776.99	20477.31
777.18	20334.12
777.37	20108.84
777.55	20212.88
777.74	20177.00
777.93	20151.52
778.12	20172.33
778.30	20043.14
778.49	20073.12
778.68	20113.35
778.86	20050.35
779.05	20069.68
779.24	20067.23
779.42	19973.43
779.61	19834.99
779.80	19849.32
779.98	19935.26
780.17	19928.95
780.36	19629.29
780.54	19751.84
780.73	19345.19
780.92	19616.35
781.10	19504.94
781.29	19474.95
781.48	19354.21
781.66	19396.72
781.85	19399.51
782.04	19264.10
782.22	19345.03
782.41	19150.15
782.60	19252.46
782.78	19222.23
782.97	19297.93
783.16	19041.36
783.34	19018.01
783.53	19015.88
783.71	18841.56
783.90	18886.20
784.09	18825.91
784.27	18849.59
784.46	18826.57
784.65	18892.18
784.83	18806.58
785.02	18769.39
785.20	18981.56
785.39	18677.31
785.58	18907.01
785.76	18806.99
785.95	18771.11
786.14	18804.45
786.32	18718.52
786.51	18628.65
786.69	18670.92
786.88	18574.34
787.07	18510.36
787.25	18550.91
787.44	18509.95
787.62	18436.39
787.81	18561.07
788.00	18512.57
788.18	18512.24
788.37	18506.26
788.55	18821.98
788.74	18599.08
788.93	18699.51
789.11	18808.05
789.30	18726.05
789.48	18622.26
789.67	18711.23
789.86	18608.09
790.04	18698.86
790.23	18577.53
790.41	18472.68
790.60	18587.77
790.78	18495.29
790.97	18237.90
791.16	18363.23
791.34	18489.96
791.53	18246.25
791.71	18496.02
791.90	18259.03
792.08	18251.66
792.27	18241.50
792.46	18118.87
792.64	18184.08
792.83	18044.41
793.01	18201.61
793.20	18157.29
793.38	18071.11
793.57	18139.84
793.75	18106.34
793.94	18212.67
794.12	18319.74
794.31	18059.97
794.50	18321.54
794.68	18321.29
794.87	18237.24
795.05	18306.06
795.24	18160.16
795.42	18099.37
795.61	18298.68
795.79	18328.09
795.98	18090.20
796.16	18266.24
796.35	18208.98
796.53	18070.70
796.72	18264.52
796.90	18285.41
797.09	18236.92
797.27	18246.01
797.46	18139.27
797.64	18193.83
797.83	18124.85
798.01	18156.80
798.20	18266.24
798.38	18089.63
798.57	18289.92
798.75	18168.02
798.94	17990.18
799.12	18362.01
799.31	18107.24
799.49	18148.53
799.68	18083.56
799.86	18130.42
800.05	18086.19
800.23	18102.41
800.42	18043.59
800.60	18258.05
800.79	17990.59
800.97	18031.22
801.16	18199.48
801.34	17999.19
801.53	17963.64
801.71	18048.01
801.90	17866.07
802.08	18043.26
802.27	17930.38
802.45	17788.17
802.64	17860.50
802.82	17817.57
803.00	17650.05
803.19	17804.06
803.37	17912.85
803.56	17659.80
803.74	17808.24
803.93	17804.96
804.11	17772.03
804.30	17742.62
804.48	17831.91
804.67	17791.28
804.85	17730.41
805.03	17858.70
805.22	17760.39
805.40	17660.62
805.59	17813.15
805.77	17792.67
805.96	17749.58
806.14	17621.38
806.32	17750.15
806.51	17766.95
806.69	17634.08
806.88	17492.52
807.06	17464.26
807.25	17499.89
807.43	17488.10
807.61	17602.46
807.80	17533.48
807.98	17704.20
808.17	17612.86
808.35	17548.06
808.53	17670.12
808.72	17582.96
808.90	17504.48
809.09	17532.17
809.27	17570.67
809.45	17406.92
809.64	17591.23
809.82	17441.32
810.01	17479.99
810.19	17429.44
810.37	17294.44
810.56	17213.42
810.74	17357.68
810.93	17178.28
811.11	17276.75
811.29	17208.84
811.48	17287.97
811.66	17287.89
811.84	17243.24
812.03	17206.21
812.21	17240.37
812.40	17266.83
812.58	17275.85
812.76	17164.03
812.95	17302.88
813.13	17104.14
813.31	17122.17
813.50	17194.83
813.68	17114.71
813.86	17200.89
814.05	17286.99
814.23	17053.11
814.42	17242.01
814.60	17118.40
814.78	17252.91
814.97	17226.86
815.15	17216.13
815.33	17273.80
815.52	17120.45
815.70	17072.69
815.88	17083.83
816.07	16845.61
816.25	16878.05
816.43	16855.27
816.62	16733.22
816.80	16829.88
816.98	16841.84
817.17	16835.12
817.35	16828.65
817.53	16872.23
817.72	16909.42
817.90	16810.14
818.08	16812.10
818.26	16868.71
818.45	16730.43
818.63	16886.57
818.81	16883.04
819.00	16683.49
819.18	16865.35
819.36	16852.73
819.55	16845.69
819.73	16711.18
819.91	16874.03
820.09	16744.44
820.28	16819.39
820.46	16542.84
820.64	16809.89
820.83	16631.96
821.01	16637.70
821.19	16610.83
821.38	16738.05
821.56	16632.86
821.74	16681.20
821.92	16631.14
822.11	16753.37
822.29	16550.29
822.47	16613.86
822.65	16595.51
822.84	16665.14
823.02	16465.91
823.20	16804.40
823.39	16622.30
823.57	16701.76
823.75	16718.47
823.93	16632.13
824.12	16680.46
824.30	16569.46
824.48	16553.08
824.66	16693.81
824.85	16400.30
825.03	16533.83
825.21	16564.14
825.39	16543.08
825.58	16552.58
825.76	16566.51
825.94	16571.59
826.12	16591.09
826.31	16512.85
826.49	16551.27
826.67	16497.04
826.85	16463.05
827.03	16476.32
827.22	16564.95
827.40	16491.47
827.58	16477.06
827.76	16583.88
827.95	16495.98
828.13	16548.73
828.31	16618.45
828.49	16676.45
828.67	16634.18
828.86	16580.93
829.04	16683.49
829.22	16606.98
829.40	16596.98
829.58	16559.79
829.77	16553.40
829.95	16577.41
830.13	16509.25
830.31	16470.99
830.49	16461.57
830.68	16454.20
830.86	16393.74
831.04	16355.49
831.22	16405.29
831.40	16366.14
831.59	16473.29
831.77	16401.03
831.95	16491.80
832.13	16302.73
832.31	16440.27
832.50	16316.82
832.68	16279.96
832.86	16251.86
833.04	16399.81
833.22	16226.63
833.40	16514.49
833.59	16372.12
833.77	16532.68
833.95	16227.20
834.13	16715.93
834.31	16476.65
834.49	16458.46
834.67	16481.72
834.86	16446.25
835.04	16449.53
835.22	16462.31
835.40	16474.76
835.58	16430.61
835.76	16511.54
835.95	16534.48
836.13	16475.01
836.31	16412.34
836.49	16490.57
836.67	16456.99
836.85	16370.15
837.03	16363.68
837.21	16387.11
837.40	16321.98
837.58	16244.00
837.76	16345.08
837.94	16287.17
838.12	16424.96
838.30	16314.45
838.48	16317.64
838.66	16249.98
838.85	16253.25
839.03	16262.26
839.21	16258.99
839.39	16179.77
839.57	16257.51
839.75	16130.54
839.93	16217.54
840.11	16291.67
840.29	16258.33
840.47	16321.16
840.66	16289.05
840.84	16264.39
841.02	16220.16
841.20	16254.73
841.38	16235.48
841.56	16217.70
841.74	16370.89
841.92	16178.05
842.10	16171.83
842.28	16204.51
842.46	16128.82
842.65	16130.62
842.83	16236.05
843.01	16282.01
843.19	16126.85
843.37	16258.50
843.55	16168.14
843.73	16245.80
843.91	16324.20
844.09	16225.24
844.27	16409.31
844.45	16245.06
844.63	16307.73
844.81	16312.48
844.99	16388.42
845.17	16266.85
845.35	16372.36
845.54	16263.00
845.72	16281.35
845.90	16205.41
846.08	16295.28
846.26	16156.59
846.44	16281.11
846.62	16099.74
846.80	16133.32
846.98	16182.39
847.16	16188.95
847.34	16265.46
847.52	16229.25
847.70	16136.03
847.88	16235.80
848.06	16162.00
848.24	16292.49
848.42	16243.67
848.60	16157.74
848.78	16211.39
848.96	16266.44
849.14	16162.00
849.32	16351.39
849.50	16227.20
849.68	16358.93
849.86	16378.83
850.04	16273.49
850.22	16285.37
850.40	16127.34
850.58	16306.17
850.76	16478.45
850.94	16045.02
851.12	16258.66
851.30	16116.78
851.48	16263.82
851.66	16128.33
851.84	16156.02
852.02	16181.16
852.20	16319.85
852.38	16187.14
852.56	16273.00
852.74	16320.34
852.92	16243.18
853.10	16165.35
853.28	16235.72
853.46	15966.37
853.64	16183.21
853.82	15984.40
854.00	16043.21
854.18	16007.25
854.36	15926.97
854.54	16036.33
854.72	15942.62
854.90	15894.12
855.07	16008.56
855.25	15961.95
855.43	16062.55
855.61	16028.63
855.79	15953.92
855.97	16042.39
856.15	16037.73
856.33	15897.97
856.51	16124.80
856.69	15961.21
856.87	16077.87
857.05	15988.25
857.23	16016.51
857.41	15875.44
857.59	15879.29
857.77	15816.22
857.94	15850.46
858.12	15944.83
858.30	15831.70
858.48	15788.86
858.66	15799.26
858.84	15951.14
859.02	15807.94
859.20	15798.69
859.38	15990.70
859.56	15926.07
859.74	15926.15
859.92	15989.39
860.09	15991.93
860.27	16046.49
860.45	15919.60
860.63	15893.55
860.81	16016.10
860.99	15883.14
861.17	15701.61
861.35	15445.86
861.53	15447.91
861.70	15434.07
861.88	15679.99
862.06	15726.76
862.24	15511.40
862.42	15464.46
862.60	15673.27
862.78	15682.85
862.96	15776.16
863.14	15615.76
863.31	15638.04
863.49	15592.09
863.67	15518.36
863.85	15562.27
864.03	15647.96
864.21	15655.57
864.39	15660.41
864.56	15553.50
864.74	15644.43
864.92	15550.55
865.10	15511.56
865.28	15544.33
865.46	15679.17
865.64	15428.58
865.81	15553.75
865.99	15392.04
866.17	15566.36
866.35	15470.60
866.53	15475.84
866.71	15498.62
866.88	15571.03
867.06	15363.04
867.24	15491.41
867.42	15352.15
867.60	15495.34
867.78	15356.24
867.95	15587.83
868.13	15405.07
868.31	15563.09
868.49	15483.87
868.67	15468.23
868.84	15341.01
869.02	15423.50
869.20	15166.44
869.38	15363.37
869.56	15250.90
869.73	15225.99
869.91	15248.77
870.09	15219.19
870.27	15110.16
870.45	15175.53
870.62	15052.49
870.80	15201.33
870.98	15114.75
871.16	15241.15
871.34	15184.13
871.51	15233.86
871.69	15077.47
871.87	15151.77
872.05	15140.71
872.23	15154.72
872.40	15046.10
872.58	15119.17
872.76	15027.75
872.94	15049.38
873.11	15069.45
873.29	15033.16
873.47	15070.02
873.65	14955.82
873.83	14993.67
874.00	14905.69
874.18	14941.82
874.36	14906.10
874.54	14975.16
874.71	14922.89
874.89	14823.36
875.07	14911.75
875.25	14823.53
875.42	14871.69
875.60	14801.08
875.78	14886.85
875.96	14683.85
876.13	14730.06
876.31	14494.05
876.49	14502.98
876.66	14396.24
876.84	14659.69
877.02	14435.15
877.20	14556.47
877.37	14526.16
877.55	14511.82
877.73	14570.07
877.91	14548.93
878.08	14607.83
878.26	14579.49
878.44	14594.64
878.61	14677.14
878.79	14550.57
878.97	14621.84
879.15	14717.77
879.32	14632.49
879.50	14576.70
879.68	14678.12
879.85	14504.62
880.03	14656.49
880.21	14408.12
880.38	14640.85
880.56	14473.32
880.74	14642.32
880.92	14415.90
881.09	14503.71
881.27	14426.38
881.45	14436.38
881.62	14429.99
881.80	14355.28
881.98	14321.53
882.15	14495.11
882.33	14423.43
882.51	14470.29
882.68	14399.60
882.86	14555.82
883.04	14447.03
883.21	14446.70
883.39	14544.10
883.57	14398.69
883.74	14403.20
883.92	14369.20
884.10	14330.37
884.27	14342.42
884.45	14250.42
884.63	14412.70
884.80	14302.85
884.98	14373.38
885.16	14338.07
885.33	14360.36
885.51	14348.56
885.69	14364.29
885.86	14278.44
886.04	14363.55
886.21	14192.26
886.39	14329.56
886.57	14081.01
886.74	14361.67
886.92	14323.33
887.10	14353.72
887.27	14340.78
887.45	14383.29
887.62	14341.93
887.80	14343.73
887.98	14516.82
888.15	14434.58
888.33	14348.07
888.51	14445.96
888.68	14340.94
888.86	14341.93
889.03	14253.94
889.21	14304.65
889.39	14266.89
889.56	14302.85
889.74	14258.29
889.91	14304.90
890.09	14267.79
890.27	14301.05
890.44	14231.83
890.62	14271.72
890.79	14215.69
890.97	14298.02
891.14	14175.96
891.32	14318.74
891.50	14253.70
891.67	14380.67
891.85	14338.89
892.02	14306.37
892.20	14453.66
892.38	14364.53
892.55	14293.10
892.73	14324.23
892.90	14186.36
893.08	14287.20
893.25	14285.48
893.43	14388.46
893.60	14225.52
893.78	14346.59
893.96	14246.33
894.13	14354.95
894.31	14355.11
894.48	14332.67
894.66	14343.15
894.83	14398.37
895.01	14408.93
895.18	14418.36
895.36	14410.74
895.53	14456.12
895.71	14375.27
895.89	14437.11
896.06	14334.06
896.24	14435.31
896.41	14381.00
896.59	14396.07
896.76	14148.11
896.94	14266.31
897.11	14201.68
897.29	14187.75
897.46	14063.89
897.64	14155.72
897.81	14103.38
897.99	14021.70
898.16	14123.78
898.34	14040.71
898.51	13998.77
898.69	13919.96
898.86	13951.66
899.04	14030.72
899.21	13990.99
899.39	14131.64
899.56	14048.90
899.74	14222.90
899.91	14057.59
900.09	14044.40
900.26	14051.28
900.44	13942.49
900.61	13938.64
900.79	13983.86
900.96	13852.87
901.14	13920.94
901.31	13775.21
901.49	13785.21
901.66	13802.98
901.84	13808.31
902.01	13661.43
902.19	13681.82
902.36	13628.99
902.54	13641.77
902.71	13619.89
902.88	13654.54
903.06	13473.09
903.23	13657.74
903.41	13514.96
903.58	13513.07
903.76	13429.27
903.93	13594.50
904.11	13611.54
904.28	13507.66
904.45	13483.25
904.63	13478.99
904.80	13311.96
904.98	13431.73
905.15	13237.66
905.33	13415.51
905.50	13244.79
905.68	13295.25
905.85	13158.69
906.02	13131.49
906.20	13154.59
906.37	13016.56
906.55	12952.17
906.72	13090.45
906.90	12933.91
907.07	12879.59
907.24	12939.89
907.42	12815.04
907.59	12809.88
907.77	12811.03
907.94	12794.07
908.11	12828.72
908.29	12762.94
908.46	12771.46
908.64	12731.24
908.81	12803.00
908.98	12658.90
909.16	12824.87
909.33	12702.98
909.51	12647.85
909.68	12604.43
909.85	12660.46
910.03	12595.09
910.20	12506.45
910.37	12561.18
910.55	12516.94
910.72	12483.84
910.90	12430.84
911.07	12429.20
911.24	12341.63
911.42	12413.23
911.59	12240.38
911.76	12258.16
911.94	12184.76
912.11	12128.15
912.29	12129.55
912.46	12006.50
912.63	12042.63
912.81	11871.50
912.98	12001.18
913.15	11843.40
913.33	11898.94
913.50	11868.31
913.67	11834.72
913.85	11731.26
914.02	11732.89
914.19	11733.39
914.37	11665.07
914.54	11647.04
914.71	11603.55
914.89	11591.91
915.06	11615.75
915.23	11569.47
915.41	11523.10
915.58	11487.22
915.75	11382.86
915.93	11385.40
916.10	11334.77
916.27	11323.46
916.45	11300.36
916.62	11187.15
916.79	11235.73
916.97	11163.23
917.14	11098.11
917.31	11043.96
917.49	11008.08
917.66	11044.20
917.83	10983.91
918.00	10973.26
918.18	11002.67
918.35	10955.81
918.52	10978.67
918.70	10920.83
918.87	10934.02
919.04	10960.24
919.21	10924.68
919.39	10794.19
919.56	10826.71
919.73	10726.85
919.91	10737.34
920.08	10672.95
920.25	10587.34
920.42	10574.40
920.60	10508.46
920.77	10378.45
920.94	10467.82
921.11	10310.70
921.29	10396.64
921.46	10249.35
921.63	10397.54
921.81	10248.61
921.98	10300.87
922.15	10254.18
922.32	10282.44
922.50	10246.15
922.67	10187.42
922.84	10168.98
923.01	10130.81
923.19	10127.21
923.36	10091.90
923.53	9908.32
923.70	9994.74
923.87	9927.98
924.05	9942.07
924.22	9786.26
924.39	9864.00
924.56	9762.91
924.74	9744.15
924.91	9768.16
925.08	9716.55
925.25	9695.49
925.43	9699.18
925.60	9613.57
925.77	9716.30
925.94	9650.85
926.11	9621.44
926.29	9536.82
926.46	9563.60
926.63	9543.62
926.80	9501.10
926.97	9444.82
927.15	9488.40
927.32	9401.49
927.49	9384.69
927.66	9394.52
927.83	9396.08
928.01	9294.42
928.18	9318.34
928.35	9231.51
928.52	9310.72
928.69	9168.84
928.87	9209.63
929.04	9163.76
929.21	9188.01
929.38	9074.39
929.55	9113.95
929.72	9044.65
929.90	9015.16
930.07	8998.04
930.24	8954.13
930.41	8880.32
930.58	8902.11
930.75	8912.76
930.93	8860.17
931.10	8833.30
931.27	8768.91
931.44	8744.99
931.61	8699.28
931.78	8732.37
931.95	8687.32
932.13	8618.59
932.30	8735.24
932.47	8541.42
932.64	8623.34
932.81	8569.03
932.98	8561.66
933.15	8551.42
933.33	8471.38
933.50	8516.11
933.67	8434.11
933.84	8421.33
934.01	8446.89
934.18	8416.99
934.35	8404.62
934.52	8328.43
934.70	8353.25
934.87	8275.27
935.04	8283.62
935.21	8260.03
935.38	8245.12
935.55	8198.43
935.72	8252.66
935.89	8141.33
936.06	8182.78
936.24	8120.20
936.41	8190.07
936.58	8119.87
936.75	8069.57
936.92	8079.32
937.09	8094.88
937.26	8004.94
937.43	8038.03
937.60	8019.76
937.77	7968.81
937.94	7981.59
938.12	7962.01
938.29	7907.13
938.46	7913.19
938.63	7830.70
938.80	7877.39
938.97	7847.00
939.14	7850.93
939.31	7785.07
939.48	7821.60
939.65	7731.90
939.82	7736.16
939.99	7703.56
940.16	7676.52
940.33	7658.91
940.50	7638.43
940.67	7591.25
940.85	7634.25
941.02	7587.56
941.19	7619.75
941.36	7573.63
941.53	7633.27
941.70	7613.12
941.87	7537.10
942.04	7532.51
942.21	7547.09
942.38	7518.26
942.55	7463.21
942.72	7466.73
942.89	7425.36
943.06	7380.14
943.23	7346.47
943.40	7349.67
943.57	7343.44
943.74	7336.40
943.91	7336.32
944.08	7312.97
944.25	7315.59
944.42	7237.28
944.59	7228.26
944.76	7247.27
944.93	7197.05
945.10	7196.40
945.27	7220.15
945.44	7098.34
945.61	7132.67
945.78	7050.26
945.95	7081.06
946.12	7049.93
946.29	7062.38
946.46	7055.91
946.63	7015.19
946.80	7011.75
946.97	7003.89
947.14	6953.92
947.31	7002.58
947.48	6922.71
947.65	6922.54
947.82	6943.11
947.99	6974.40
948.16	6860.12
948.33	6914.43
948.50	6831.53
948.67	6852.26
948.84	6794.75
949.01	6788.20
949.18	6793.60
949.35	6812.69
949.52	6753.87
949.68	6743.80
949.85	6762.39
950.02	6759.44
950.19	6705.79
950.36	6690.47
950.53	6678.02
950.70	6665.65
950.87	6601.01
951.04	6654.42
951.21	6569.64
951.38	6561.94
951.55	6556.29
951.72	6601.26
951.89	6558.25
952.06	6572.83
952.23	6539.25
952.39	6527.29
952.56	6477.23
952.73	6501.48
952.90	6439.31
953.07	6514.42
953.24	6411.04
953.41	6410.14
953.58	6374.43
953.75	6436.36
953.92	6378.19
954.09	6384.91
954.25	6329.53
954.42	6369.51
954.59	6339.69
954.76	6327.08
954.93	6285.95
955.10	6295.70
955.27	6243.03
955.44	6284.97
955.61	6267.36
955.77	6272.03
955.94	6248.35
956.11	6241.06
956.28	6236.72
956.45	6209.36
956.62	6200.59
956.79	6176.67
956.96	6157.34
957.12	6151.12
957.29	6117.45
957.46	6117.45
957.63	6070.67
957.80	6069.85
957.97	6073.78
958.14	6090.00
958.30	6054.12
958.47	6041.84
958.64	6018.24
958.81	6073.87
958.98	6032.50
959.15	6016.28
959.32	6079.68
959.48	6032.66
959.65	6000.79
959.82	6062.89
959.99	5994.90
960.16	6018.57
960.33	5991.05
960.49	5961.31
960.66	5919.04
960.83	5929.28
961.00	5902.66
961.17	5891.35
961.33	5838.02
961.50	5874.97
961.67	5804.35
961.84	5827.54
962.01	5803.62
962.18	5833.60
962.34	5772.98
962.51	5792.72
962.68	5727.60
962.85	5798.21
963.02	5689.01
963.18	5748.73
963.35	5717.19
963.52	5737.34
963.69	5699.82
963.86	5715.72
964.02	5693.93
964.19	5709.41
964.36	5664.27
964.53	5683.36
964.69	5618.81
964.86	5667.47
965.03	5610.78
965.20	5649.12
965.37	5588.50
965.53	5583.42
965.70	5583.50
965.87	5580.39
966.04	5547.54
966.20	5546.64
966.37	5546.88
966.54	5502.32
966.71	5522.47
966.87	5468.73
967.04	5487.00
967.21	5484.30
967.38	5450.30
967.54	5441.04
967.71	5436.78
967.88	5430.31
968.05	5393.20
968.21	5405.90
968.38	5364.37
968.55	5415.40
968.72	5403.85
968.88	5357.98
969.05	5387.47
969.22	5356.99
969.39	5366.91
969.55	5344.79
969.72	5335.70
969.89	5345.36
970.05	5356.09
970.22	5366.99
970.39	5336.76
970.56	5374.53
970.72	5354.29
970.89	5355.03
971.06	5310.55
971.22	5312.02
971.39	5318.17
971.56	5322.26
971.73	5269.51
971.89	5280.89
972.06	5286.46
972.23	5304.81
972.39	5228.96
972.56	5277.86
972.73	5216.67
972.89	5251.97
973.06	5229.94
973.23	5217.98
973.39	5196.27
973.56	5194.88
973.73	5181.69
973.89	5177.59
974.06	5172.10
974.23	5178.00
974.39	5142.12
974.56	5150.31
974.73	5132.29
974.89	5129.26
975.06	5110.42
975.23	5138.52
975.39	5073.15
975.56	5105.42
975.73	5069.05
975.89	5095.26
976.06	5056.68
976.23	5060.20
976.39	5061.92
976.56	5065.77
976.73	5043.00
976.89	5051.60
977.06	5022.44
977.23	5014.90
977.39	5009.41
977.56	5031.78
977.72	4980.33
977.89	5016.95
978.06	4956.17
978.22	4966.24
978.39	4956.74
978.56	4974.35
978.72	4930.28
978.89	4959.03
979.05	4910.78
979.22	4940.60
979.39	4902.35
979.55	4910.70
979.72	4891.94
979.88	4908.90
980.05	4848.69
980.22	4891.45
980.38	4884.00
980.55	4846.64
980.71	4845.74
980.88	4851.47
981.05	4840.01
981.21	4823.70
981.38	4806.99
981.54	4831.08
981.71	4800.68
981.88	4793.89
982.04	4788.40
982.21	4801.09
982.37	4767.92
982.54	4801.26
982.70	4758.50
982.87	4767.67
983.04	4726.06
983.20	4794.29
983.37	4729.01
983.53	4761.94
983.70	4733.51
983.86	4734.25
984.03	4720.98
984.20	4718.11
984.36	4694.11
984.53	4728.60
984.69	4667.32
984.86	4667.81
985.02	4700.09
985.19	4678.46
985.35	4643.89
985.52	4646.10
985.68	4631.77
985.85	4678.63
986.02	4654.87
986.18	4662.41
986.35	4668.88
986.51	4664.37
986.68	4653.15
986.84	4646.19
987.01	4629.23
987.17	4640.21
987.34	4600.23
987.50	4610.88
987.67	4566.81
987.83	4639.39
988.00	4587.78
988.16	4572.79
988.33	4559.27
988.49	4584.09
988.66	4549.77
988.82	4590.56
988.99	4555.50
989.15	4593.43
989.32	4531.09
989.48	4546.82
989.65	4515.77
989.81	4519.29
989.98	4474.65
990.14	4463.10
990.31	4488.74
990.47	4487.10
990.64	4477.76
990.80	4448.84
990.97	4461.05
991.13	4461.13
991.30	4430.00
991.46	4420.66
991.63	4401.33
991.79	4425.99
991.95	4405.75
992.12	4437.95
992.28	4422.55
992.45	4415.42
992.61	4399.12
992.78	4415.99
992.94	4400.18
993.11	4436.23
993.27	4402.64
993.44	4418.86
993.60	4409.77
993.76	4408.95
993.93	4394.04
994.09	4400.35
994.26	4360.13
994.42	4369.30
994.59	4361.35
994.75	4374.71
994.91	4346.94
995.08	4344.07
995.24	4314.33
995.41	4326.05
995.57	4326.46
995.74	4323.43
995.90	4299.75
996.06	4301.39
996.23	4297.29
996.39	4295.00
996.56	4249.78
996.72	4272.47
996.88	4281.65
997.05	4300.90
997.21	4267.56
997.38	4277.22
997.54	4252.32
997.70	4293.94
997.87	4279.11
998.03	4276.16
998.20	4253.71
998.36	4262.07
998.52	4231.51
998.69	4260.02
998.85	4210.54
999.02	4237.90
999.18	4207.43
999.34	4222.50
999.51	4231.68
999.67	4247.49
999.83	4209.23
1000.00	4228.15
1000.16	4189.65
1000.33	4204.15
1000.49	4183.34
1000.65	4214.06
1000.82	4226.68
1000.98	4187.03
1001.14	4181.87
1001.31	4217.83
1001.47	4181.87
1001.63	4178.76
1001.80	4145.66
1001.96	4152.63
1002.12	4137.47
1002.29	4166.63
1002.45	4157.46
1002.61	4148.37
1002.78	4157.87
1002.94	4128.21
1003.10	4115.60
1003.27	4133.05
1003.43	4101.84
1003.59	4115.35
1003.76	4117.24
1003.92	4123.30
1004.08	4110.60
1004.25	4120.84
1004.41	4087.01
1004.57	4086.68
1004.74	4064.40
1004.90	4122.64
1005.06	4054.40
1005.23	4074.31
1005.39	4075.38
1005.55	4063.91
1005.71	4071.03
1005.88	4052.68
1006.04	4066.53
1006.20	4067.84
1006.37	4019.51
1006.53	4032.61
1006.69	4022.70
1006.85	4052.27
1007.02	4024.01
1007.18	4046.21
1007.34	4003.45
1007.51	4052.36
1007.67	3988.13
1007.83	3987.97
1007.99	3985.92
1008.16	4008.28
1008.32	3968.23
1008.48	3995.42
1008.64	3975.03
1008.81	3993.62
1008.97	3969.70
1009.13	3957.00
1009.29	3976.83
1009.46	3970.19
1009.62	3973.71
1009.78	3952.01
1009.95	3967.24
1010.11	3965.20
1010.27	3958.56
1010.43	3947.83
1010.59	3965.93
1010.76	3957.09
1010.92	3929.97
1011.08	3956.18
1011.24	3937.42
1011.41	3946.76
1011.57	3914.32
1011.73	3919.65
1011.89	3882.38
1012.06	3941.77
1012.22	3876.56
1012.38	3920.14
1012.54	3905.89
1012.70	3912.93
1012.87	3883.19
1013.03	3918.50
1013.19	3901.79
1013.35	3903.51
1013.51	3872.95
1013.68	3898.02
1013.84	3870.17
1014.00	3870.09
1014.16	3864.68
1014.32	3868.53
1014.49	3852.97
1014.65	3882.05
1014.81	3844.12
1014.97	3834.37
1015.13	3843.71
1015.30	3841.58
1015.46	3844.45
1015.62	3855.34
1015.78	3818.23
1015.94	3843.05
1016.10	3807.26
1016.27	3816.92
1016.43	3812.91
1016.59	3823.97
1016.75	3804.96
1016.91	3807.58
1017.07	3794.64
1017.24	3809.22
1017.40	3781.29
1017.56	3804.88
1017.72	3785.06
1017.88	3814.30
1018.04	3784.73
1018.21	3794.31
1018.37	3784.48
1018.53	3778.83
1018.69	3777.27
1018.85	3789.81
1019.01	3759.99
1019.17	3763.51
1019.34	3768.18
1019.50	3750.65
1019.66	3727.06
1019.82	3751.39
1019.98	3734.68
1020.14	3759.09
1020.30	3737.62
1020.46	3761.95
1020.63	3723.86
1020.79	3746.80
1020.95	3724.76
1021.11	3730.99
1021.27	3712.64
1021.43	3713.30
1021.59	3721.57
1021.75	3708.54
1021.91	3696.99
1022.07	3725.01
1022.24	3694.37
1022.40	3705.10
1022.56	3688.47
1022.72	3718.46
1022.88	3672.42
1023.04	3700.11
1023.20	3679.71
1023.36	3686.10
1023.52	3673.15
1023.68	3701.99
1023.84	3662.10
1024.01	3687.08
1024.17	3654.40
1024.33	3667.17
1024.49	3636.86
1024.65	3644.81
1024.81	3668.08
1024.97	3663.24
1025.13	3655.79
1025.29	3672.42
1025.45	3633.67
1025.61	3651.61
1025.77	3647.43
1025.93	3654.48
1026.09	3627.69
1026.25	3671.60
1026.41	3644.32
1026.57	3643.09
1026.73	3652.68
1026.90	3650.55
1027.06	3629.57
1027.22	3657.18
1027.38	3621.05
1027.54	3637.85
1027.70	3623.35
1027.86	3633.26
1028.02	3635.47
1028.18	3621.05
1028.34	3619.91
1028.50	3628.67
1028.66	3611.63
1028.82	3623.18
1028.98	3589.43
1029.14	3600.74
1029.30	3600.90
1029.46	3610.00
1029.62	3599.84
1029.78	3589.43
1029.94	3576.24
1030.10	3579.36
1030.26	3563.88
1030.42	3587.55
1030.58	3568.79
1030.74	3573.21
1030.90	3563.14
1031.06	3563.22
1031.22	3560.43
1031.38	3574.36
1031.54	3547.00
1031.70	3559.21
1031.86	3547.66
1032.02	3568.63
1032.18	3547.49
1032.34	3560.68
1032.50	3547.82
1032.66	3568.95
1032.82	3548.23
1032.98	3542.41
1033.14	3540.77
1033.30	3554.78
1033.45	3537.74
1033.61	3551.34
1033.77	3531.03
1033.93	3551.01
1034.09	3537.99
1034.25	3556.42
1034.41	3531.19
1034.57	3529.72
1034.73	3505.30
1034.89	3514.89
1035.05	3515.79
1035.21	3530.12
1035.37	3511.04
1035.53	3524.64
1035.69	3509.48
1035.85	3524.55
1036.01	3518.25
1036.16	3526.11
1036.32	3509.89
1036.48	3498.26
1036.64	3491.05
1036.80	3484.50
1036.96	3489.98
1037.12	3489.17
1037.28	3480.40
1037.44	3485.32
1037.60	3478.02
1037.76	3464.34
1037.91	3479.58
1038.07	3492.11
1038.23	3475.98
1038.39	3492.44
1038.55	3477.94
1038.71	3489.00
1038.87	3456.07
1039.03	3477.12
1039.19	3466.80
1039.35	3466.72
1039.50	3480.24
1039.66	3465.25
1039.82	3451.48
1039.98	3453.20
1040.14	3456.32
1040.30	3459.26
1040.46	3431.49
1040.62	3456.40
1040.77	3456.81
1040.93	3466.56
1041.09	3451.40
1041.25	3446.98
1041.41	3447.80
1041.57	3466.15
1041.73	3466.15
1041.88	3466.15

