SpectraSuite Data File
++++++++++++++++++++++++++++++++++++
Date: Tue Sep 20 12:10:23 EDT 2022
User: Laboratoire
Dark Spectrum Present: No
Reference Spectrum Present: No
Number of Sampled Component Spectra: 1
Spectrometers: FLMT00174
Integration Time (usec): 15000 (FLMT00174)
Spectra Averaged: 25 (FLMT00174)
Boxcar Smoothing: 0 (FLMT00174)
Correct for Electrical Dark: No (FLMT00174)
Strobe/Lamp Enabled: No (FLMT00174)
Correct for Detector Non-linearity: No (FLMT00174)
Correct for Stray Light: No (FLMT00174)
Number of Pixels in Processed Spectrum: 3648
>>>>>Begin Processed Spectral Data<<<<<
345.74	3166.57
345.96	3166.57
346.18	3166.57
346.39	3189.51
346.61	3233.09
346.83	3219.57
347.05	3208.02
347.27	3214.66
347.49	3212.69
347.71	3221.45
347.93	3226.37
348.15	3233.66
348.36	3227.52
348.58	3225.14
348.80	3237.10
349.02	3220.55
349.24	3219.57
349.46	3303.29
349.68	3327.46
349.90	3334.26
350.11	3325.08
350.33	3311.98
350.55	3319.76
350.77	3310.09
350.99	3302.23
351.21	3316.81
351.43	3291.66
351.65	3316.15
351.86	3308.37
352.08	3311.57
352.30	3287.40
352.52	3340.32
352.74	3296.33
352.96	3297.56
353.18	3334.26
353.39	3333.52
353.61	3314.92
353.83	3334.34
354.05	3343.76
354.27	3330.82
354.49	3331.55
354.70	3317.71
354.92	3324.75
355.14	3311.24
355.36	3297.48
355.58	3325.49
355.80	3323.03
356.02	3322.79
356.23	3316.15
356.45	3340.65
356.67	3326.47
356.89	3334.18
357.11	3309.76
357.33	3335.90
357.54	3322.13
357.76	3323.12
357.98	3303.78
358.20	3352.44
358.42	3300.18
358.63	3333.68
358.85	3315.99
359.07	3337.70
359.29	3309.52
359.51	3308.04
359.73	3316.23
359.94	3330.00
360.16	3295.02
360.38	3310.09
360.60	3289.04
360.82	3323.53
361.03	3344.91
361.25	3317.14
361.47	3314.02
361.69	3341.96
361.91	3314.68
362.12	3300.92
362.34	3327.79
362.56	3347.77
362.78	3338.84
363.00	3344.25
363.21	3314.76
363.43	3321.40
363.65	3308.12
363.87	3318.53
364.09	3334.18
364.30	3319.27
364.52	3315.74
364.74	3326.39
364.96	3326.15
365.17	3336.80
365.39	3318.04
365.61	3312.47
365.83	3311.73
366.05	3317.46
366.26	3328.36
366.48	3321.97
366.70	3332.78
366.92	3334.58
367.13	3327.46
367.35	3327.87
367.57	3327.79
367.79	3331.55
368.01	3331.23
368.22	3350.39
368.44	3323.85
368.66	3322.95
368.88	3333.77
369.09	3332.62
369.31	3335.90
369.53	3323.03
369.75	3318.69
369.96	3339.42
370.18	3322.95
370.40	3337.29
370.62	3325.90
370.83	3319.92
371.05	3332.13
371.27	3355.15
371.49	3335.81
371.70	3325.25
371.92	3324.18
372.14	3347.04
372.36	3331.72
372.57	3355.23
372.79	3341.88
373.01	3342.45
373.22	3330.32
373.44	3333.36
373.66	3333.36
373.88	3347.61
374.09	3331.31
374.31	3338.27
374.53	3331.31
374.75	3377.10
374.96	3337.78
375.18	3366.45
375.40	3355.47
375.61	3345.15
375.83	3313.37
376.05	3359.57
376.27	3352.28
376.48	3355.56
376.70	3342.12
376.92	3335.81
377.13	3356.62
377.35	3344.50
377.57	3345.81
377.79	3335.32
378.00	3350.80
378.22	3358.18
378.44	3355.97
378.65	3360.39
378.87	3350.72
379.09	3355.39
379.30	3344.82
379.52	3365.47
379.74	3347.69
379.96	3362.68
380.17	3353.10
380.39	3340.48
380.61	3332.45
380.82	3355.88
381.04	3330.41
381.26	3346.79
381.47	3368.09
381.69	3382.18
381.91	3344.33
382.12	3371.20
382.34	3360.96
382.56	3376.53
382.77	3364.32
382.99	3380.38
383.21	3363.75
383.42	3383.65
383.64	3368.74
383.86	3380.70
384.07	3380.62
384.29	3374.89
384.51	3370.14
384.72	3381.93
384.94	3371.04
385.16	3387.18
385.37	3378.41
385.59	3375.22
385.81	3391.19
386.02	3375.46
386.24	3405.77
386.46	3380.46
386.67	3408.97
386.89	3409.29
387.11	3427.23
387.32	3386.93
387.54	3405.36
387.76	3416.59
387.97	3411.10
388.19	3429.77
388.40	3423.88
388.62	3422.97
388.84	3426.58
389.05	3439.52
389.27	3446.40
389.49	3456.64
389.70	3445.91
389.92	3462.21
390.14	3449.35
390.35	3458.04
390.57	3459.35
390.78	3451.40
391.00	3460.82
391.22	3453.12
391.43	3461.48
391.65	3476.88
391.86	3489.17
392.08	3470.32
392.30	3472.37
392.51	3493.51
392.73	3506.86
392.95	3494.00
393.16	3482.45
393.38	3499.81
393.59	3470.32
393.81	3531.27
394.03	3495.80
394.24	3497.19
394.46	3511.86
394.67	3504.24
394.89	3506.37
395.11	3508.09
395.32	3528.32
395.54	3524.06
395.75	3490.72
395.97	3503.17
396.19	3510.14
396.40	3497.44
396.62	3510.38
396.83	3494.98
397.05	3512.10
397.26	3510.96
397.48	3519.23
397.70	3525.62
397.91	3537.01
398.13	3502.35
398.34	3536.68
398.56	3551.67
398.78	3528.49
398.99	3566.91
399.21	3543.89
399.42	3556.50
399.64	3541.35
399.85	3534.63
400.07	3552.49
400.29	3576.90
400.50	3548.39
400.72	3569.77
400.93	3545.28
401.15	3561.34
401.36	3569.69
401.58	3584.19
401.79	3587.80
402.01	3593.53
402.23	3579.52
402.44	3618.11
402.66	3606.55
402.87	3600.33
403.09	3602.21
403.30	3626.79
403.52	3597.46
403.73	3619.74
403.95	3622.37
404.16	3641.45
404.38	3635.23
404.60	3633.01
404.81	3663.82
405.03	3677.17
405.24	3686.02
405.46	3696.09
405.67	3696.17
405.89	3712.72
406.10	3699.86
406.32	3703.79
406.53	3733.12
406.75	3757.86
406.96	3739.67
407.18	3759.25
407.39	3768.02
407.61	3790.38
407.82	3803.65
408.04	3819.46
408.25	3820.61
408.47	3829.70
408.68	3837.07
408.90	3846.66
409.12	3881.88
409.33	3881.15
409.55	3885.49
409.76	3895.89
409.98	3899.09
410.19	3953.73
410.41	3949.30
410.62	3962.08
410.84	3938.33
411.05	3998.37
411.27	3982.48
411.48	4003.04
411.70	4002.39
411.91	4019.34
412.12	4036.79
412.34	4036.05
412.55	4053.67
412.77	4042.03
412.98	4080.78
413.20	4067.10
413.41	4097.00
413.63	4088.24
413.84	4097.49
414.06	4117.40
414.27	4112.49
414.49	4107.49
414.70	4119.28
414.92	4126.17
415.13	4115.93
415.35	4135.50
415.56	4138.86
415.78	4139.60
415.99	4151.56
416.21	4137.88
416.42	4154.18
416.63	4147.87
416.85	4196.53
417.06	4143.37
417.28	4135.67
417.49	4184.90
417.71	4172.29
417.92	4149.68
418.14	4149.76
418.35	4163.85
418.57	4179.09
418.78	4170.73
418.99	4136.24
419.21	4187.69
419.42	4195.63
419.64	4156.80
419.85	4186.29
420.07	4207.84
420.28	4195.63
420.50	4183.84
420.71	4205.54
420.92	4191.95
421.14	4217.67
421.35	4201.20
421.57	4199.32
421.78	4218.00
422.00	4214.31
422.21	4225.04
422.42	4231.35
422.64	4197.43
422.85	4254.94
423.07	4259.20
423.28	4243.64
423.50	4268.79
423.71	4282.14
423.92	4303.44
424.14	4275.50
424.35	4294.26
424.57	4343.09
424.78	4343.74
424.99	4335.47
425.21	4329.73
425.42	4342.68
425.64	4361.44
425.85	4375.03
426.06	4344.89
426.28	4408.87
426.49	4424.92
426.71	4422.79
426.92	4428.53
427.13	4471.21
427.35	4523.06
427.56	4501.68
427.78	4509.14
427.99	4550.26
428.20	4581.63
428.42	4604.82
428.63	4615.30
428.84	4599.90
429.06	4632.83
429.27	4665.76
429.49	4679.12
429.70	4735.48
429.91	4724.50
430.13	4757.27
430.34	4779.55
430.56	4796.26
430.77	4841.97
430.98	4818.05
431.20	4899.97
431.41	4927.66
431.62	4962.80
431.84	4909.31
432.05	5010.48
432.26	5016.95
432.48	4992.87
432.69	5115.66
432.91	5099.11
433.12	5134.83
433.33	5195.45
433.55	5268.44
433.76	5262.95
433.97	5247.88
434.19	5312.35
434.40	5367.07
434.61	5399.02
434.83	5456.77
435.04	5421.55
435.25	5493.14
435.47	5537.05
435.68	5511.82
435.89	5653.38
436.11	5631.75
436.32	5687.54
436.53	5694.50
436.75	5699.99
436.96	5774.86
437.17	5742.34
437.39	5789.03
437.60	5816.15
437.81	5896.59
438.03	5868.82
438.24	5921.01
438.45	6030.20
438.67	5992.52
438.88	6049.70
439.09	6130.23
439.31	6109.58
439.52	6147.26
439.73	6126.62
439.94	6101.39
440.16	6183.88
440.37	6167.34
440.58	6242.86
440.80	6225.82
441.01	6212.80
441.22	6348.38
441.44	6319.95
441.65	6289.72
441.86	6307.09
442.08	6375.16
442.29	6320.69
442.50	6368.77
442.71	6355.75
442.93	6359.35
443.14	6350.75
443.35	6405.55
443.57	6348.13
443.78	6429.23
443.99	6424.31
444.20	6370.08
444.42	6401.13
444.63	6377.05
444.84	6424.64
445.06	6434.64
445.27	6374.18
445.48	6394.91
445.69	6399.74
445.91	6395.56
446.12	6360.42
446.33	6411.70
446.54	6468.96
446.76	6374.43
446.97	6399.17
447.18	6400.07
447.39	6396.79
447.61	6406.70
447.82	6423.25
448.03	6416.20
448.25	6408.42
448.46	6442.25
448.67	6473.96
448.88	6373.77
449.10	6454.30
449.31	6471.01
449.52	6407.03
449.73	6436.77
449.95	6491.65
450.16	6430.87
450.37	6510.41
450.58	6603.39
450.79	6444.14
451.01	6495.99
451.22	6477.81
451.43	6511.97
451.64	6538.35
451.86	6540.15
452.07	6570.62
452.28	6570.21
452.49	6644.02
452.71	6573.57
452.92	6574.88
453.13	6607.40
453.34	6631.40
453.55	6698.74
453.77	6774.43
453.98	6777.96
454.19	6705.38
454.40	6728.48
454.62	6795.16
454.83	6726.92
455.04	6862.91
455.25	6758.46
455.46	6997.66
455.68	6884.62
455.89	6905.50
456.10	6914.93
456.31	6968.91
456.52	7016.42
456.74	7039.11
456.95	7144.38
457.16	7127.59
457.37	7208.03
457.58	7217.45
457.80	7187.31
458.01	7195.09
458.22	7516.37
458.43	7382.44
458.64	7458.46
458.86	7383.91
459.07	7484.02
459.28	7465.58
459.49	7622.95
459.70	7770.73
459.91	7720.19
460.13	7755.00
460.34	7786.13
460.55	7822.50
460.76	7943.17
460.97	7983.88
461.19	8015.59
461.40	8245.78
461.61	8132.89
461.82	8241.44
462.03	8325.57
462.24	8356.04
462.46	8393.15
462.67	8448.12
462.88	8570.42
463.09	8596.06
463.30	8787.34
463.51	8716.73
463.72	8929.14
463.94	9022.12
464.15	9042.36
464.36	9038.10
464.57	9320.88
464.78	9318.59
464.99	9373.80
465.20	9412.05
465.42	9631.27
465.63	9641.51
465.84	9646.67
466.05	9839.26
466.26	9978.77
466.47	10120.16
466.68	10073.22
466.90	10272.78
467.11	10298.50
467.32	10490.84
467.53	10663.94
467.74	10557.12
467.95	10719.97
468.16	10947.29
468.37	11078.20
468.59	11090.32
468.80	11335.18
469.01	11214.19
469.22	11488.86
469.43	11732.89
469.64	11668.18
469.85	11885.35
470.06	11970.71
470.28	12151.66
470.49	11998.48
470.70	12249.23
470.91	12503.34
471.12	12393.98
471.33	12725.59
471.54	12670.29
471.75	12769.90
471.96	13101.43
472.17	13107.90
472.39	13431.64
472.60	13171.14
472.81	13575.66
473.02	13465.07
473.23	13762.60
473.44	13780.95
473.65	13804.46
473.86	13913.49
474.07	14054.23
474.28	14150.81
474.49	14500.77
474.71	14400.09
474.92	14657.07
475.13	14560.81
475.34	14608.24
475.55	14683.36
475.76	14817.30
475.97	15160.46
476.18	15036.51
476.39	15265.15
476.60	15396.79
476.81	15446.27
477.02	15555.72
477.23	15540.56
477.44	15544.57
477.65	15731.51
477.87	15891.91
478.08	15888.31
478.29	15858.24
478.50	16207.95
478.71	16048.70
478.92	16262.67
479.13	16213.93
479.34	16219.75
479.55	16341.81
479.76	16260.95
479.97	16303.22
480.18	16708.89
480.39	16364.83
480.60	16684.80
480.81	16670.22
481.02	16697.91
481.23	16724.29
481.44	16931.29
481.65	17010.84
481.86	17144.69
482.07	16755.17
482.28	17449.51
482.49	17161.40
482.71	17191.80
482.92	17307.22
483.13	17419.20
483.34	17299.11
483.55	17341.63
483.76	17347.03
483.97	17583.86
484.18	17492.77
484.39	17612.86
484.60	17476.96
484.81	17824.95
485.02	17624.16
485.23	17827.65
485.44	17853.70
485.65	17948.07
485.86	17754.58
486.07	18030.23
486.28	17970.68
486.49	18127.80
486.70	18191.86
486.91	18296.80
487.12	18139.27
487.33	18116.00
487.54	18480.95
487.75	18430.98
487.96	18437.94
488.17	18420.25
488.38	18598.59
488.59	18580.16
488.80	18645.28
489.01	18658.22
489.22	18890.05
489.43	18816.16
489.64	18646.18
489.85	19072.73
490.06	18774.06
490.26	19088.05
490.47	19013.67
490.68	19270.65
490.89	19419.99
491.10	19162.60
491.31	19426.95
491.52	19632.89
491.73	19525.66
491.94	19515.67
492.15	19690.81
492.36	19835.72
492.57	19902.82
492.78	19900.77
492.99	20009.64
493.20	20147.75
493.41	20233.85
493.62	20283.57
493.83	20303.64
494.04	20428.24
494.25	20622.47
494.46	20712.17
494.67	20612.56
494.88	20836.03
495.08	20908.04
495.29	21016.75
495.50	21220.40
495.71	21159.61
495.92	21426.34
496.13	21457.55
496.34	21487.78
496.55	21617.46
496.76	22006.24
496.97	21728.05
497.18	22108.07
497.39	22074.40
497.60	22547.89
497.81	22237.34
498.02	22613.02
498.22	22480.96
498.43	22947.98
498.64	23015.81
498.85	22997.79
499.06	23241.91
499.27	23656.99
499.48	23174.08
499.69	23589.73
499.90	23826.23
500.11	24063.96
500.32	24374.35
500.52	24152.76
500.73	24760.19
500.94	24881.84
501.15	24938.77
501.36	25086.96
501.57	24954.99
501.78	25323.95
501.99	25601.58
502.20	25672.03
502.41	25905.33
502.61	25958.82
502.82	26364.81
503.03	26325.49
503.24	26819.46
503.45	26699.37
503.66	27199.32
503.87	27261.50
504.08	27663.63
504.28	27641.84
504.49	27885.47
504.70	28102.64
504.91	28386.98
505.12	28291.13
505.33	28948.53
505.54	28984.90
505.75	29167.74
505.95	29499.68
506.16	29565.87
506.37	29573.98
506.58	30243.42
506.79	29997.25
507.00	30585.10
507.21	30476.31
507.41	30767.95
507.62	31016.32
507.83	31632.43
508.04	31391.76
508.25	32084.38
508.46	31899.82
508.67	32509.21
508.87	32459.65
509.08	33020.22
509.29	32938.79
509.50	33260.98
509.71	33521.48
509.92	33810.49
510.12	33727.01
510.33	34058.79
510.54	34121.94
510.75	34483.70
510.96	34805.72
511.17	35092.93
511.37	35183.61
511.58	35592.47
511.79	35396.68
512.00	35548.64
512.21	36146.65
512.42	36267.48
512.62	36483.42
512.83	36878.18
513.04	36859.51
513.25	37339.47
513.46	36634.15
513.66	37827.21
513.87	37508.30
514.08	37956.23
514.29	37859.32
514.50	37920.93
514.71	38500.42
514.91	38300.54
515.12	38377.30
515.33	38750.76
515.54	38742.98
515.75	39277.17
515.95	39106.37
516.16	39148.48
516.37	39736.16
516.58	39782.37
516.78	39521.46
516.99	39859.04
517.20	39887.80
517.41	39962.59
517.62	40130.28
517.82	40091.53
518.03	40664.71
518.24	40995.34
518.45	40229.07
518.66	40729.43
518.86	40535.36
519.07	40965.52
519.28	40222.02
519.49	41003.61
519.69	41052.68
519.90	41104.70
520.11	41188.50
520.32	41014.18
520.52	41359.71
520.73	40984.11
520.94	41440.48
521.15	41264.28
521.36	40713.37
521.56	41471.86
521.77	40755.32
521.98	41391.17
522.19	40856.89
522.39	41131.16
522.60	40890.97
522.81	41090.94
523.02	40715.67
523.22	41049.49
523.43	41130.67
523.64	40914.81
523.84	40857.47
524.05	41168.27
524.26	40896.13
524.47	40545.11
524.67	40626.38
524.88	40792.92
525.09	41018.93
525.30	40599.83
525.50	40452.95
525.71	40471.71
525.92	40418.47
526.13	40615.73
526.33	40375.70
526.54	39987.16
526.75	40135.03
526.95	40432.47
527.16	39544.15
527.37	39929.74
527.58	40020.26
527.78	39843.23
527.99	40030.33
528.20	40041.64
528.40	39603.29
528.61	39316.66
528.82	39673.74
529.03	39279.47
529.23	39232.45
529.44	39436.51
529.65	39315.27
529.85	39185.18
530.06	39037.40
530.27	39019.21
530.47	38553.91
530.68	39228.51
530.89	38350.59
531.09	38887.90
531.30	38599.62
531.51	38182.74
531.72	38719.55
531.92	38551.29
532.13	38572.92
532.34	38318.89
532.54	38248.19
532.75	38335.93
532.96	38100.33
533.16	38232.79
533.37	38331.83
533.58	37906.35
533.78	38187.41
533.99	38104.67
534.20	37619.30
534.40	37830.98
534.61	37810.09
534.82	37793.87
535.02	37828.11
535.23	37700.40
535.44	37772.24
535.64	37590.79
535.85	37713.18
536.06	37618.65
536.26	37481.68
536.47	37416.72
536.68	37817.22
536.88	37239.03
537.09	37732.10
537.29	37130.41
537.50	37741.11
537.71	37288.27
537.91	37461.44
538.12	37531.73
538.33	37228.47
538.53	37511.33
538.74	37472.26
538.95	37507.40
539.15	37222.24
539.36	37539.35
539.56	37710.07
539.77	37305.06
539.98	37277.62
540.18	37566.22
540.39	37348.72
540.60	37613.08
540.80	37721.62
541.01	37502.65
541.21	37530.91
541.42	37742.43
541.63	37583.50
541.83	37833.85
542.04	37775.60
542.25	37705.40
542.45	37896.19
542.66	37806.32
542.86	38066.50
543.07	37266.72
543.28	38166.27
543.48	37889.63
543.69	38168.98
543.89	37995.96
544.10	38525.90
544.31	38327.08
544.51	38253.84
544.72	38539.66
544.92	38363.94
545.13	38756.66
545.33	38744.54
545.54	38514.35
545.75	38858.24
545.95	38521.47
546.16	38796.47
546.36	39193.21
546.57	38563.01
546.78	38123.02
546.98	38761.58
547.19	38207.31
547.39	39033.96
547.60	39306.09
547.80	39893.28
548.01	40013.79
548.22	39639.17
548.42	39882.06
548.63	40103.73
548.83	40002.89
549.04	40297.47
549.24	39995.52
549.45	40339.58
549.65	40787.84
549.86	40255.77
550.07	40645.63
550.27	41062.92
550.48	41143.77
550.68	41124.36
550.89	41226.35
551.09	41559.59
551.30	41406.08
551.50	41900.38
551.71	41726.95
551.91	41824.11
552.12	42061.26
552.33	42388.28
552.53	42102.06
552.74	42843.18
552.94	42966.63
553.15	42896.10
553.35	43327.97
553.56	43004.64
553.76	43640.17
553.97	43295.37
554.17	43636.81
554.38	44334.02
554.58	43810.48
554.79	44491.38
554.99	44148.96
555.20	44382.92
555.40	44993.96
555.61	44850.19
555.81	44774.74
556.02	45767.35
556.22	45714.19
556.43	45575.09
556.63	45915.79
556.84	46068.57
557.04	46655.60
557.25	46245.35
557.45	46886.03
557.66	46956.40
557.86	46859.49
558.07	47539.42
558.27	47353.05
558.48	47461.43
558.68	47688.92
558.89	47903.79
559.09	48119.07
559.30	48015.36
559.50	48365.89
559.71	48154.30
559.91	49131.34
560.12	49064.25
560.32	49201.63
560.53	49591.56
560.73	49417.73
560.94	50014.02
561.14	49665.04
561.35	50548.62
561.55	50307.29
561.76	50737.44
561.96	50280.66
562.17	50954.28
562.37	51289.41
562.57	51213.14
562.78	51317.84
562.98	51725.46
563.19	51822.54
563.39	52085.99
563.60	52204.36
563.80	51835.15
564.01	52747.73
564.21	52582.01
564.42	52589.30
564.62	52945.15
564.82	53422.08
565.03	53055.99
565.23	53354.09
565.44	53807.76
565.64	53684.88
565.85	54188.52
566.05	54056.87
566.25	54512.42
566.46	54240.78
566.66	54653.73
566.87	54662.74
567.07	54795.53
567.28	55070.21
567.48	55575.07
567.68	54934.14
567.89	55989.42
568.09	55575.32
568.30	55703.77
568.50	56170.21
568.71	55970.82
568.91	56416.95
569.11	55901.85
569.32	56181.60
569.52	56292.03
569.73	55817.14
569.93	56455.78
570.13	56294.48
570.34	56300.95
570.54	56965.40
570.75	56686.96
570.95	56799.68
571.15	56568.01
571.36	57266.20
571.56	56721.69
571.77	56646.65
571.97	56410.97
572.17	57304.13
572.38	57189.20
572.58	57437.41
572.79	57122.03
572.99	57137.26
573.19	57127.68
573.40	56971.71
573.60	57128.50
573.81	57040.76
574.01	57311.59
574.21	57297.09
574.42	57329.28
574.62	57128.83
574.82	57598.06
575.03	57398.09
575.23	57756.08
575.43	57274.80
575.64	57077.79
575.84	57581.59
576.05	56972.36
576.25	57210.91
576.45	56919.44
576.66	57534.49
576.86	56839.90
577.06	57161.27
577.27	56934.60
577.47	56842.60
577.67	56689.66
577.88	56202.08
578.08	56786.16
578.28	56910.18
578.49	56648.04
578.69	56711.37
578.89	56410.56
579.10	56427.52
579.30	57028.39
579.50	56353.71
579.71	55846.72
579.91	56322.42
580.11	55949.52
580.32	55673.62
580.52	55553.36
580.72	56019.56
580.93	55232.65
581.13	55287.13
581.33	55665.67
581.54	55035.97
581.74	55123.86
581.94	55211.19
582.15	55455.64
582.35	54867.21
582.55	54853.70
582.76	54279.04
582.96	54720.09
583.16	54153.13
583.37	54351.21
583.57	53860.10
583.77	54362.59
583.97	53126.28
584.18	54187.45
584.38	53770.98
584.58	53376.78
584.79	53604.93
584.99	53289.62
585.19	53002.17
585.40	52885.35
585.60	53069.59
585.80	52422.76
586.00	52683.67
586.21	52491.16
586.41	52297.91
586.61	52520.98
586.82	52171.35
587.02	51800.50
587.22	51921.82
587.42	51284.41
587.63	51770.68
587.83	51011.54
588.03	51266.88
588.23	50748.09
588.44	51051.19
588.64	50580.73
588.84	50667.07
589.05	50670.68
589.25	50592.61
589.45	50402.48
589.65	50235.77
589.86	50352.02
590.06	50090.37
590.26	49746.55
590.46	49935.05
590.67	49094.32
590.87	49735.99
591.07	49713.54
591.27	49066.22
591.48	49325.41
591.68	48625.00
591.88	49419.04
592.08	48586.17
592.29	49022.31
592.49	48793.43
592.69	48902.63
592.89	48418.90
593.10	48439.54
593.30	48168.47
593.50	48671.12
593.70	47642.55
593.90	48309.78
594.11	47862.59
594.31	47882.41
594.51	47826.62
594.71	47809.26
594.92	47805.16
595.12	47366.65
595.32	47314.06
595.52	47406.87
595.72	46708.84
595.93	47278.26
596.13	46941.25
596.33	46608.57
596.53	47099.68
596.73	46758.57
596.94	46508.31
597.14	46815.50
597.34	46448.91
597.54	46678.29
597.74	46231.99
597.95	46173.09
598.15	45964.20
598.35	46041.86
598.55	46076.68
598.75	45894.82
598.96	46346.02
599.16	45907.84
599.36	45891.29
599.56	45736.79
599.76	45585.57
599.97	45975.26
600.17	45624.65
600.37	45932.58
600.57	45138.21
600.77	45876.14
600.97	45391.67
601.18	45903.99
601.38	45385.94
601.58	45603.10
601.78	45320.40
601.98	45102.91
602.18	45313.11
602.39	45509.88
602.59	45175.32
602.79	45114.54
602.99	44917.61
603.19	45001.33
603.39	44807.51
603.60	44834.21
603.80	44927.93
604.00	44706.26
604.20	44846.26
604.40	45031.80
604.60	44777.69
604.80	44740.58
605.01	44733.37
605.21	44672.10
605.41	44531.77
605.61	44304.28
605.81	44612.79
606.01	44996.41
606.21	44658.33
606.42	44899.58
606.62	44599.19
606.82	44971.67
607.02	44590.83
607.22	44718.13
607.42	44893.44
607.62	44430.27
607.82	44625.08
608.03	44690.28
608.23	44597.22
608.43	44375.55
608.63	44884.18
608.83	44847.08
609.03	44823.15
609.23	44913.10
609.43	45049.50
609.63	44883.04
609.84	44693.97
610.04	45201.29
610.24	45087.75
610.44	45144.44
610.64	44750.57
610.84	44994.28
611.04	45373.40
611.24	45025.90
611.44	44541.27
611.64	45109.87
611.85	45252.98
612.05	45141.33
612.25	45425.42
612.45	45084.64
612.65	45279.77
612.85	45365.13
613.05	45092.09
613.25	45693.46
613.45	45493.74
613.65	45552.15
613.85	45144.69
614.05	45650.78
614.25	45817.57
614.46	45817.89
614.66	45546.09
614.86	45416.98
615.06	45656.43
615.26	46005.16
615.46	45463.02
615.66	46135.08
615.86	46099.61
616.06	45690.10
616.26	45901.70
616.46	46552.21
616.66	46188.25
616.86	46647.73
617.06	46336.69
617.26	46844.58
617.46	46598.91
617.66	46494.46
617.86	46491.51
618.07	46717.44
618.27	46624.63
618.47	46743.74
618.67	46817.55
618.87	46992.85
619.07	46880.46
619.27	46997.61
619.47	46979.99
619.67	47522.71
619.87	47130.81
620.07	47585.21
620.27	47608.15
620.47	47370.50
620.67	47810.98
620.87	47793.12
621.07	48086.72
621.27	47946.14
621.47	47777.55
621.67	48299.95
621.87	48064.68
622.07	48469.85
622.27	48551.60
622.47	48479.76
622.67	48687.02
622.87	48329.36
623.07	48933.67
623.27	49370.55
623.47	48566.10
623.67	49082.11
623.87	49452.63
624.07	49329.01
624.27	49054.91
624.47	49397.01
624.67	49275.19
624.87	49563.96
625.07	49230.55
625.27	49747.29
625.47	49400.53
625.67	49552.00
625.87	49844.45
626.07	49934.64
626.27	50327.19
626.47	50253.96
626.67	50257.48
626.87	50062.43
627.07	50625.21
627.27	50591.14
627.47	50815.59
627.67	50789.46
627.87	50949.86
628.07	51433.83
628.27	51265.08
628.47	51189.47
628.67	51821.15
628.86	51884.47
629.06	51742.91
629.26	51539.84
629.46	52103.93
629.66	52033.73
629.86	51733.74
630.06	52320.03
630.26	52263.02
630.46	52625.59
630.66	52240.32
630.86	52332.56
631.06	52435.45
631.26	52253.84
631.46	52783.20
631.66	52891.58
631.86	52639.02
632.06	53189.76
632.26	52975.95
632.45	53023.96
632.65	53280.12
632.85	53374.90
633.05	53414.14
633.25	53671.12
633.45	53259.48
633.65	53379.90
633.85	54029.27
634.05	53237.52
634.25	53644.58
634.45	53700.20
634.65	54202.28
634.84	53913.11
635.04	54297.30
635.24	54003.05
635.44	54512.91
635.64	54269.62
635.84	54585.17
636.04	54557.23
636.24	54631.12
636.44	54671.34
636.64	54114.22
636.84	55242.81
637.03	54528.31
637.23	55009.10
637.43	55294.26
637.63	55097.16
637.83	55489.55
638.03	55362.66
638.23	54922.92
638.43	55626.11
638.62	55936.01
638.82	54834.20
639.02	55581.30
639.22	55229.95
639.42	55592.11
639.62	55175.23
639.82	55334.64
640.02	55533.70
640.21	55733.42
640.41	55171.21
640.61	55698.28
640.81	55661.50
641.01	55662.97
641.21	55677.14
641.41	56281.79
641.61	55704.26
641.80	55825.99
642.00	56091.24
642.20	56154.40
642.40	55523.63
642.60	56016.78
642.80	56242.22
642.99	55892.43
643.19	56505.01
643.39	55960.58
643.59	56371.32
643.79	56124.17
643.99	56290.55
644.19	56081.08
644.38	55581.95
644.58	55845.16
644.78	55573.43
644.98	55611.77
645.18	55864.00
645.38	56089.03
645.57	55650.36
645.77	55762.75
645.97	55617.75
646.17	55945.02
646.37	55851.38
646.56	55690.91
646.76	55779.21
646.96	55879.65
647.16	55748.66
647.36	55896.77
647.55	55674.11
647.75	55696.89
647.95	55351.02
648.15	55629.79
648.35	55411.64
648.55	55539.85
648.74	55241.34
648.94	55203.16
649.14	55488.07
649.34	54961.42
649.54	54921.12
649.73	55000.58
649.93	54711.49
650.13	54880.65
650.33	54617.28
650.52	54777.18
650.72	54962.73
650.92	54522.58
651.12	54339.49
651.32	54594.34
651.51	54787.18
651.71	54627.76
651.91	54368.08
652.11	54074.08
652.30	53956.60
652.50	54404.62
652.70	54374.39
652.90	53934.73
653.10	54113.89
653.29	53683.08
653.49	54074.89
653.69	53461.57
653.89	53412.58
654.08	53195.33
654.28	53682.26
654.48	53159.21
654.68	53404.23
654.87	52935.24
655.07	52797.45
655.27	53118.25
655.47	52745.11
655.66	52761.98
655.86	52350.67
656.06	52828.34
656.26	52000.55
656.45	52234.10
656.65	52149.39
656.85	51836.71
657.04	51313.74
657.24	51281.38
657.44	51011.54
657.64	51533.37
657.83	50544.28
658.03	51007.28
658.23	50866.30
658.43	50604.41
658.62	50786.18
658.82	50378.97
659.02	50347.76
659.21	50237.41
659.41	49901.46
659.61	50438.93
659.81	50113.39
660.00	49862.88
660.20	49878.85
660.40	49470.90
660.59	49449.19
660.79	48897.71
660.99	49177.96
661.19	48822.92
661.38	48729.45
661.58	48019.95
661.78	48457.64
661.97	48259.07
662.17	48775.08
662.37	48141.19
662.56	48067.06
662.76	48023.23
662.96	48067.87
663.15	47954.50
663.35	47730.53
663.55	47545.23
663.74	47252.29
663.94	47627.97
664.14	46967.95
664.33	47156.28
664.53	46892.67
664.73	47153.33
664.93	46349.46
665.12	46674.11
665.32	46380.76
665.52	46285.81
665.71	46010.16
665.91	46138.44
666.10	45739.58
666.30	45958.22
666.50	45339.90
666.69	45158.45
666.89	45549.61
667.09	45657.09
667.28	45162.05
667.48	44918.18
667.68	44970.36
667.87	44964.22
668.07	44523.66
668.27	44899.67
668.46	44788.50
668.66	44598.21
668.86	44899.01
669.05	44352.04
669.25	44458.53
669.44	43911.73
669.64	43755.02
669.84	43575.94
670.03	43991.76
670.23	43602.73
670.43	43499.18
670.62	43395.80
670.82	43122.03
671.01	43317.00
671.21	42854.65
671.41	42655.26
671.60	42806.97
671.80	42867.92
672.00	42543.27
672.19	42753.81
672.39	42576.29
672.58	42365.02
672.78	42110.74
672.98	42558.92
673.17	42215.68
673.37	41417.63
673.56	41669.04
673.76	41741.70
673.96	41894.07
674.15	41449.09
674.35	41580.40
674.54	41430.65
674.74	41250.43
674.94	41115.76
675.13	41297.37
675.33	40771.94
675.52	41146.31
675.72	40905.14
675.91	40721.48
676.11	40865.00
676.31	40309.35
676.50	40361.12
676.70	40215.39
676.89	40309.76
677.09	40324.34
677.28	40190.49
677.48	39702.82
677.68	39967.58
677.87	39620.74
678.07	39464.19
678.26	39511.71
678.46	39467.39
678.65	39222.12
678.85	39479.84
679.04	38966.05
679.24	39195.99
679.44	38982.92
679.63	39080.08
679.83	38883.80
680.02	38871.10
680.22	38675.97
680.41	38577.83
680.61	38391.14
680.80	38349.69
681.00	38429.56
681.19	38315.12
681.39	38132.44
681.59	38029.31
681.78	37866.53
681.98	38248.93
682.17	37782.16
682.37	38104.42
682.56	37730.71
682.76	38057.65
682.95	37705.81
683.15	37749.06
683.34	37570.56
683.54	37724.98
683.73	37757.01
683.93	37241.41
684.12	37560.32
684.32	37636.83
684.51	36959.36
684.71	37327.51
684.90	37165.64
685.10	37097.32
685.29	36930.28
685.49	37223.39
685.68	37139.83
685.88	37118.04
686.07	36837.88
686.27	37070.53
686.46	36904.97
686.66	36696.00
686.85	36815.60
687.05	36443.11
687.24	36350.95
687.44	36609.98
687.63	36522.33
687.83	36071.12
688.02	36434.43
688.22	36474.32
688.41	36162.54
688.61	36214.40
688.80	36372.01
689.00	36015.09
689.19	35794.07
689.39	36230.21
689.58	36103.97
689.77	35967.82
689.97	36086.77
690.16	35859.28
690.36	35487.69
690.55	35405.78
690.75	35864.27
690.94	35388.90
691.14	35557.98
691.33	35236.04
691.53	35657.43
691.72	35414.13
691.91	35354.41
692.11	35402.33
692.30	35470.41
692.50	35511.78
692.69	35136.92
692.89	35196.88
693.08	35108.98
693.28	35105.13
693.47	35119.31
693.66	35133.72
693.86	35049.51
694.05	35003.96
694.25	35025.75
694.44	35088.50
694.64	34979.55
694.83	34974.64
695.02	35030.67
695.22	35140.36
695.41	34823.50
695.61	34797.86
695.80	34852.99
695.99	34849.71
696.19	34832.92
696.38	34856.76
696.58	34611.74
696.77	35035.75
696.96	34907.05
697.16	34777.05
697.35	34631.89
697.55	34610.18
697.74	34372.86
697.93	34843.16
698.13	34442.66
698.32	34605.10
698.52	34464.36
698.71	34134.89
698.90	34781.55
699.10	34457.81
699.29	34569.88
699.49	34837.34
699.68	34549.48
699.87	34485.66
700.07	34641.64
700.26	34480.75
700.45	34473.54
700.65	34314.45
700.84	34685.14
701.04	34515.32
701.23	34706.35
701.42	34540.39
701.62	34477.64
701.81	34581.67
702.00	34487.96
702.20	34220.17
702.39	34381.87
702.58	34454.45
702.78	34151.60
702.97	34160.36
703.17	34177.98
703.36	34276.93
703.55	34236.47
703.75	34218.69
703.94	34467.72
704.13	34326.41
704.33	34325.51
704.52	34605.35
704.71	34366.72
704.91	34333.13
705.10	34188.05
705.29	34266.94
705.49	34398.01
705.68	34521.95
705.87	34554.97
706.07	34244.00
706.26	34570.70
706.45	34148.57
706.65	34134.97
706.84	34438.40
707.03	34642.21
707.23	34117.19
707.42	34099.25
707.61	34544.32
707.80	34205.75
708.00	34311.26
708.19	34287.34
708.38	34605.10
708.58	34030.36
708.77	34483.86
708.96	33979.73
709.16	33994.72
709.35	34654.09
709.54	34186.82
709.74	34147.67
709.93	33995.46
710.12	34456.01
710.31	34713.73
710.51	34443.31
710.70	34476.57
710.89	34636.48
711.09	34211.15
711.28	34244.00
711.47	34419.56
711.66	34360.16
711.86	34286.19
712.05	34419.23
712.24	34574.14
712.43	34241.30
712.63	33991.78
712.82	34424.47
713.01	34269.48
713.21	34028.39
713.40	34153.32
713.59	34538.58
713.78	34074.76
713.98	34409.07
714.17	34320.19
714.36	34381.46
714.55	34162.74
714.75	34459.86
714.94	34525.56
715.13	34768.69
715.32	34372.94
715.52	34691.36
715.71	34472.23
715.90	34477.55
716.09	34438.23
716.29	34797.45
716.48	34570.70
716.67	34260.22
716.86	34580.36
717.06	34509.99
717.25	34650.65
717.44	34796.38
717.63	34792.04
717.82	34440.04
718.02	34541.37
718.21	34769.76
718.40	34802.85
718.59	34656.05
718.79	34531.29
718.98	34619.44
719.17	35032.80
719.36	35114.55
719.55	34862.24
719.75	34798.43
719.94	34680.06
720.13	34901.24
720.32	34729.13
720.51	34538.42
720.71	34587.98
720.90	34324.04
721.09	34658.68
721.28	34493.94
721.47	34931.79
721.67	34719.38
721.86	34827.35
722.05	34817.19
722.24	34414.97
722.43	34810.72
722.63	34571.11
722.82	34708.97
723.01	34792.61
723.20	34474.11
723.39	34482.63
723.58	34627.22
723.78	34198.29
723.97	34701.03
724.16	34378.84
724.35	34632.79
724.54	34546.94
724.73	34830.30
724.93	34680.96
725.12	35036.73
725.31	34490.42
725.50	34830.21
725.69	35026.57
725.88	34768.86
726.08	34484.52
726.27	34912.05
726.46	34349.51
726.65	35060.65
726.84	34547.43
727.03	34613.54
727.23	34931.71
727.42	34643.11
727.61	34574.22
727.80	34484.93
727.99	34695.79
728.18	34739.12
728.37	34598.06
728.56	34478.95
728.76	34419.88
728.95	34714.79
729.14	34595.93
729.33	34609.61
729.52	34574.38
729.71	34699.14
729.90	34754.85
730.09	34573.89
730.29	34918.03
730.48	34419.47
730.67	34942.36
730.86	34609.93
731.05	34959.73
731.24	34595.84
731.43	34642.29
731.62	34346.57
731.81	34312.65
732.01	34778.28
732.20	34387.61
732.39	34688.41
732.58	34560.46
732.77	34063.37
732.96	34435.28
733.15	34504.75
733.34	34350.01
733.53	34490.09
733.72	34589.05
733.92	34578.56
734.11	34615.51
734.30	34606.25
734.49	34901.48
734.68	34617.23
734.87	34363.28
735.06	34423.98
735.25	34478.70
735.44	34348.04
735.63	34458.55
735.82	34536.86
736.01	34404.81
736.20	34300.36
736.40	34687.43
736.59	34467.23
736.78	34669.57
736.97	34160.12
737.16	34354.92
737.35	34372.62
737.54	34444.62
737.73	34121.86
737.92	34424.31
738.11	34483.86
738.30	34224.75
738.49	34234.17
738.68	34193.87
738.87	34386.95
739.06	34082.95
739.25	34222.46
739.44	34117.93
739.63	34059.36
739.82	33824.91
740.01	33993.50
740.20	33666.23
740.39	33793.70
740.59	33760.03
740.78	33858.17
740.97	33680.81
741.16	33575.96
741.35	33716.36
741.54	33691.46
741.73	33714.07
741.92	33576.28
742.11	33682.29
742.30	33705.39
742.49	33337.33
742.68	33472.08
742.87	33415.80
743.06	33060.28
743.25	33245.74
743.44	33042.99
743.63	33273.76
743.82	32995.40
744.01	33025.63
744.20	32890.95
744.39	33122.78
744.58	32935.52
744.77	32806.82
744.96	32497.58
745.15	32785.36
745.34	32450.88
745.53	32591.46
745.72	32357.74
745.91	32372.82
746.10	32107.56
746.29	32452.77
746.48	32481.28
746.67	32422.70
746.86	32453.26
747.04	32360.28
747.23	32261.90
747.42	32432.70
747.61	32106.66
747.80	32505.03
747.99	31876.39
748.18	32206.19
748.37	32021.14
748.56	31566.00
748.75	31887.36
748.94	31844.85
749.13	31865.41
749.32	31588.61
749.51	31724.43
749.70	31623.59
749.89	31501.53
750.08	31609.41
750.27	31250.94
750.46	31434.19
750.65	31721.56
750.84	31310.41
751.02	31371.11
751.21	31175.08
751.40	31268.47
751.59	31248.97
751.78	31071.78
751.97	31084.07
752.16	30802.68
752.35	31108.24
752.54	30618.20
752.73	30984.70
752.92	30653.18
753.11	30604.68
753.30	30668.50
753.49	30720.27
753.67	30490.81
753.86	30249.15
754.05	30406.68
754.24	30166.91
754.43	30115.54
754.62	30132.50
754.81	29830.79
755.00	29902.15
755.19	29761.57
755.38	29396.13
755.56	29611.33
755.75	29892.23
755.94	29529.17
756.13	29564.89
756.32	29573.65
756.51	29414.98
756.70	29521.14
756.89	29367.22
757.08	29288.33
757.26	29230.49
757.45	29288.90
757.64	29024.22
757.83	29233.03
758.02	29062.40
758.21	29015.62
758.40	29116.05
758.59	29026.68
758.77	28724.89
758.96	28765.03
759.15	28728.50
759.34	28445.79
759.53	28496.75
759.72	28399.10
759.91	28127.54
760.09	28242.64
760.28	28304.65
760.47	27948.79
760.66	28191.03
760.85	27831.24
761.04	28170.38
761.23	27905.13
761.41	27763.74
761.60	27805.35
761.79	27638.24
761.98	27517.08
762.17	27886.70
762.36	27599.16
762.54	27854.67
762.73	27617.10
762.92	27458.26
763.11	27558.70
763.30	27538.95
763.49	27378.97
763.67	27178.43
763.86	27180.72
764.05	27191.86
764.24	27033.52
764.43	27170.89
764.61	26796.93
764.80	26857.06
764.99	27097.82
765.18	26623.18
765.37	26780.39
765.55	26736.48
765.74	26494.49
765.93	26347.36
766.12	26557.98
766.31	26462.79
766.49	26513.90
766.68	26507.19
766.87	26355.47
767.06	26337.70
767.25	26275.19
767.43	26245.46
767.62	26032.47
767.81	26132.25
768.00	25910.98
768.19	25770.16
768.37	25795.64
768.56	25723.80
768.75	25765.82
768.94	25710.53
769.12	25403.00
769.31	25345.25
769.50	25247.36
769.69	25305.11
769.88	24916.82
770.06	25355.16
770.25	24986.78
770.44	24996.11
770.63	25155.86
770.81	24920.34
771.00	24808.11
771.19	24822.94
771.38	24737.82
771.56	24920.42
771.75	24420.47
771.94	24679.25
772.13	24564.73
772.31	24354.77
772.50	24575.38
772.69	24360.75
772.88	24601.10
773.06	24197.24
773.25	24377.05
773.44	24271.87
773.62	24157.02
773.81	24082.72
774.00	23938.30
774.19	23904.06
774.37	23742.02
774.56	23947.80
774.75	23527.47
774.94	23777.98
775.12	23564.99
775.31	23636.84
775.50	23655.68
775.68	23636.26
775.87	23498.15
776.06	23345.78
776.25	23507.24
776.43	23257.88
776.62	23416.15
776.81	23134.67
776.99	23244.69
777.18	23132.22
777.37	22851.15
777.55	22946.67
777.74	22854.10
777.93	22776.94
778.12	22764.40
778.30	22660.20
778.49	22598.02
778.68	22695.59
778.86	22577.71
779.05	22608.51
779.24	22574.76
779.42	22437.14
779.61	22450.24
779.80	22442.62
779.98	22546.25
780.17	22603.10
780.36	22289.85
780.54	22432.88
780.73	21966.43
780.92	22242.74
781.10	22092.75
781.29	21959.96
781.48	21855.84
781.66	21889.67
781.85	21919.57
782.04	21700.28
782.22	21792.27
782.41	21654.32
782.60	21741.24
782.78	21747.79
782.97	21763.60
783.16	21440.43
783.34	21395.29
783.53	21508.10
783.71	21296.75
783.90	21306.82
784.09	21246.12
784.27	21332.13
784.46	21234.24
784.65	21320.34
784.83	21187.14
785.02	21190.00
785.20	21316.90
785.39	20962.43
785.58	21290.93
785.76	21220.15
785.95	21125.13
786.14	21178.04
786.32	21090.88
786.51	21031.98
786.69	21099.65
786.88	21033.87
787.07	20952.36
787.25	20957.77
787.44	20912.79
787.62	20842.67
787.81	20874.04
788.00	20744.78
788.18	20690.22
788.37	20692.84
788.55	21039.68
788.74	20804.90
788.93	21022.64
789.11	21117.51
789.30	21040.67
789.48	20884.45
789.67	21001.51
789.86	20979.97
790.04	20992.01
790.23	20893.05
790.41	20797.70
790.60	20920.66
790.78	20826.45
790.97	20537.03
791.16	20742.97
791.34	20858.15
791.53	20497.87
791.71	20791.06
791.90	20547.19
792.08	20635.25
792.27	20527.77
792.46	20433.81
792.64	20464.12
792.83	20366.48
793.01	20454.95
793.20	20369.92
793.38	20347.96
793.57	20340.51
793.75	20324.21
793.94	20440.94
794.12	20566.93
794.31	20345.50
794.50	20460.60
794.68	20467.97
794.87	20410.47
795.05	20472.97
795.24	20379.99
795.42	20309.38
795.61	20564.72
795.79	20538.59
795.98	20254.41
796.16	20407.35
796.35	20410.38
796.53	20227.71
796.72	20470.76
796.90	20470.59
797.09	20449.38
797.27	20426.93
797.46	20356.81
797.64	20399.33
797.83	20275.05
798.01	20292.83
798.20	20358.45
798.38	20284.07
798.57	20417.59
798.75	20270.79
798.94	20029.22
799.12	20512.70
799.31	20275.22
799.49	20182.16
799.68	20197.56
799.86	20187.24
800.05	20156.52
800.23	20242.86
800.42	20160.61
800.60	20345.83
800.79	20144.15
800.97	20243.52
801.16	20314.70
801.34	20043.47
801.53	20075.25
801.71	20206.32
801.90	19981.46
802.08	20182.57
802.27	20063.13
802.45	19889.05
802.64	19945.00
802.82	19938.04
803.00	19689.09
803.19	19780.02
803.37	19920.02
803.56	19714.98
803.74	19758.23
803.93	19847.60
804.11	19824.91
804.30	19743.65
804.48	19886.02
804.67	19952.21
804.85	19823.60
805.03	19961.96
805.22	19795.67
805.40	19686.63
805.59	19904.62
805.77	19901.42
805.96	19781.82
806.14	19780.10
806.32	19879.06
806.51	19848.42
806.69	19574.81
806.88	19516.57
807.06	19452.84
807.25	19495.68
807.43	19480.93
807.61	19556.79
807.80	19492.40
807.98	19685.73
808.17	19556.79
808.35	19556.95
808.53	19671.72
808.72	19484.05
808.90	19453.74
809.09	19514.44
809.27	19575.39
809.45	19384.27
809.64	19563.18
809.82	19411.88
810.01	19389.35
810.19	19407.21
810.37	19343.56
810.56	19174.15
810.74	19271.39
810.93	19101.40
811.11	19116.97
811.29	19040.38
811.48	19163.50
811.66	19148.59
811.84	19176.36
812.03	19148.84
812.21	19148.67
812.40	19253.36
812.58	19267.54
812.76	19133.43
812.95	19243.21
813.13	18980.25
813.31	19101.57
813.50	19105.75
813.68	19048.16
813.86	19089.85
814.05	19164.89
814.23	18898.98
814.42	19037.92
814.60	18993.60
814.78	19008.26
814.97	19016.29
815.15	18992.04
815.33	19108.86
815.52	18936.01
815.70	18960.59
815.88	18925.69
816.07	18681.49
816.25	18716.88
816.43	18767.59
816.62	18590.07
816.80	18682.72
816.98	18632.75
817.17	18671.82
817.35	18660.19
817.53	18649.46
817.72	18740.47
817.90	18527.32
818.08	18587.86
818.26	18715.24
818.45	18511.18
818.63	18626.11
818.81	18703.03
819.00	18420.58
819.18	18646.10
819.36	18617.02
819.55	18573.27
819.73	18453.35
819.91	18655.03
820.09	18568.60
820.28	18647.25
820.46	18491.36
820.64	18786.92
820.83	18477.35
821.01	18467.60
821.19	18486.11
821.38	18474.23
821.56	18390.43
821.74	18500.86
821.92	18373.23
822.11	18532.15
822.29	18276.73
822.47	18344.31
822.65	18385.93
822.84	18442.94
823.02	18241.83
823.20	18539.69
823.39	18347.51
823.57	18469.24
823.75	18467.35
823.93	18373.88
824.12	18434.26
824.30	18285.17
824.48	18350.46
824.66	18496.19
824.85	18116.17
825.03	18355.53
825.21	18380.11
825.39	18321.95
825.58	18362.25
825.76	18334.07
825.94	18302.86
826.12	18284.76
826.31	18180.23
826.49	18254.69
826.67	18275.83
826.85	18177.52
827.03	18248.96
827.22	18260.59
827.40	18214.72
827.58	18220.53
827.76	18280.58
827.95	18225.78
828.13	18236.67
828.31	18263.13
828.49	18349.80
828.67	18318.02
828.86	18214.06
829.04	18363.40
829.22	18311.05
829.40	18193.66
829.58	18239.87
829.77	18269.03
829.95	18200.95
830.13	18225.94
830.31	18081.60
830.49	18157.62
830.68	18111.01
830.86	18045.80
831.04	17985.43
831.22	18001.65
831.40	17967.24
831.59	18150.98
831.77	18016.88
831.95	18142.46
832.13	17944.22
832.31	18083.97
832.50	18021.31
832.68	17963.39
832.86	17964.04
833.04	18112.24
833.22	17893.27
833.40	18184.08
833.59	17961.51
833.77	18157.05
833.95	17812.17
834.13	18324.90
834.31	18082.74
834.49	18135.58
834.67	18076.60
834.86	18108.88
835.04	18011.15
835.22	17981.08
835.40	17930.95
835.58	17972.73
835.76	18053.75
835.95	18176.38
836.13	18068.16
836.31	18034.17
836.49	18194.56
836.67	18165.97
836.85	18047.52
837.03	17986.90
837.21	18058.01
837.40	17941.03
837.58	17790.95
837.76	17990.83
837.94	17918.42
838.12	18104.21
838.30	17867.38
838.48	17919.40
838.66	17868.69
838.85	17876.23
839.03	17811.35
839.21	17904.98
839.39	17815.20
839.57	17910.63
839.75	17732.21
839.93	17820.28
840.11	17908.34
840.29	17836.58
840.47	17891.22
840.66	17875.16
840.84	17881.14
841.02	17854.11
841.20	17885.98
841.38	17785.71
841.56	17770.14
841.74	17935.29
841.92	17656.28
842.10	17716.24
842.28	17756.63
842.46	17653.65
842.65	17697.15
842.83	17840.27
843.01	17901.13
843.19	17670.61
843.37	17790.87
843.55	17700.35
843.73	17789.07
843.91	17843.71
844.09	17821.42
844.27	18006.07
844.45	17853.70
844.63	17892.61
844.81	17871.07
844.99	17922.27
845.17	17835.51
845.35	17894.74
845.54	17771.70
845.72	17791.44
845.90	17770.14
846.08	17748.19
846.26	17557.24
846.44	17814.05
846.62	17504.64
846.80	17581.32
846.98	17629.82
847.16	17568.46
847.34	17664.06
847.52	17640.14
847.70	17550.44
847.88	17748.60
848.06	17619.58
848.24	17718.45
848.42	17722.63
848.60	17676.02
848.78	17721.48
848.96	17765.80
849.14	17763.34
849.32	17944.88
849.50	17772.93
849.68	17912.19
849.86	17853.78
850.04	17741.72
850.22	17735.00
850.40	17612.04
850.58	17737.79
850.76	17995.09
850.94	17536.10
851.12	17791.69
851.30	17654.80
851.48	17775.55
851.66	17605.98
851.84	17582.88
852.02	17655.54
852.20	17774.98
852.38	17616.87
852.56	17747.45
852.74	17770.88
852.92	17702.07
853.10	17637.43
853.28	17762.20
853.46	17384.72
853.64	17671.10
853.82	17447.71
854.00	17514.31
854.18	17414.70
854.36	17426.99
854.54	17510.95
854.72	17366.37
854.90	17324.91
855.07	17442.80
855.25	17403.47
855.43	17421.09
855.61	17443.86
855.79	17404.29
855.97	17516.93
856.15	17492.19
856.33	17366.53
856.51	17524.22
856.69	17339.25
856.87	17478.68
857.05	17396.18
857.23	17430.02
857.41	17247.99
857.59	17276.58
857.77	17178.94
857.94	17146.41
858.12	17249.30
858.30	17243.65
858.48	17165.83
858.66	17124.95
858.84	17299.11
859.02	17148.22
859.20	17128.96
859.38	17420.19
859.56	17368.00
859.74	17233.41
859.92	17408.72
860.09	17285.68
860.27	17410.60
860.45	17248.57
860.63	17274.78
860.81	17375.54
860.99	17226.61
861.17	17017.15
861.35	16860.84
861.53	16702.25
861.70	16698.40
861.88	17035.33
862.06	17106.85
862.24	16870.84
862.42	16853.39
862.60	17041.39
862.78	17042.95
862.96	17144.37
863.14	16944.98
863.31	17011.90
863.49	17018.70
863.67	16940.06
863.85	16937.19
864.03	17044.59
864.21	17020.67
864.39	17028.04
864.56	16862.57
864.74	16950.30
864.92	16832.17
865.10	16803.09
865.28	16794.74
865.46	16959.56
865.64	16616.32
865.81	16875.10
865.99	16605.50
866.17	16895.66
866.35	16744.60
866.53	16786.71
866.71	16839.96
866.88	16849.54
867.06	16733.13
867.24	16854.70
867.42	16743.54
867.60	16802.03
867.78	16706.35
867.95	16918.19
868.13	16759.92
868.31	16882.88
868.49	16837.58
868.67	16774.42
868.84	16721.66
869.02	16755.50
869.20	16465.91
869.38	16625.82
869.56	16559.88
869.73	16489.18
869.91	16591.33
870.09	16537.59
870.27	16423.48
870.45	16481.89
870.62	16348.52
870.80	16474.76
870.98	16362.78
871.16	16388.34
871.34	16422.74
871.51	16495.73
871.69	16323.70
871.87	16422.58
872.05	16364.09
872.23	16374.98
872.40	16241.21
872.58	16313.22
872.76	16241.70
872.94	16301.01
873.11	16325.10
873.29	16230.23
873.47	16303.96
873.65	16198.94
873.83	16218.52
874.00	16174.20
874.18	16188.29
874.36	16095.89
874.54	16147.66
874.71	16040.18
874.89	15938.93
875.07	16079.34
875.25	16046.16
875.42	16061.73
875.60	16003.89
875.78	16147.33
875.96	15874.62
876.13	15972.52
876.31	15705.30
876.49	15718.00
876.66	15554.49
876.84	15821.46
877.02	15643.12
877.20	15682.69
877.37	15756.74
877.55	15767.56
877.73	15668.85
877.91	15660.41
878.08	15738.07
878.26	15708.17
878.44	15722.17
878.61	15772.64
878.79	15712.67
878.97	15724.63
879.15	15826.29
879.32	15826.29
879.50	15712.26
879.68	15884.46
879.85	15678.76
880.03	15748.31
880.21	15580.78
880.38	15769.20
880.56	15568.25
880.74	15787.05
880.92	15502.96
881.09	15643.12
881.27	15598.31
881.45	15605.60
881.62	15530.40
881.80	15526.39
881.98	15439.06
882.15	15590.61
882.33	15474.78
882.51	15544.74
882.68	15456.35
882.86	15664.34
883.04	15497.14
883.21	15542.53
883.39	15623.13
883.57	15519.51
883.74	15493.54
883.92	15518.69
884.10	15500.75
884.27	15460.85
884.45	15406.13
884.63	15546.87
884.80	15474.45
884.98	15515.74
885.16	15449.22
885.33	15496.32
885.51	15496.08
885.69	15497.88
885.86	15397.86
886.04	15504.35
886.21	15270.80
886.39	15456.27
886.57	15187.16
886.74	15408.92
886.92	15374.43
887.10	15450.86
887.27	15400.97
887.45	15485.18
887.62	15401.05
887.80	15441.77
887.98	15540.89
888.15	15487.48
888.33	15433.00
888.51	15569.56
888.68	15429.89
888.86	15455.94
889.03	15340.11
889.21	15439.96
889.39	15450.20
889.56	15421.53
889.74	15363.04
889.91	15421.12
890.09	15393.35
890.27	15440.29
890.44	15395.65
890.62	15357.31
890.79	15384.75
890.97	15396.55
891.14	15337.57
891.32	15383.85
891.50	15276.54
891.67	15434.15
891.85	15370.91
892.02	15382.78
892.20	15442.09
892.38	15373.04
892.55	15332.32
892.73	15385.16
892.90	15233.69
893.08	15396.06
893.25	15254.75
893.43	15443.16
893.60	15233.20
893.78	15361.81
893.96	15260.64
894.13	15349.69
894.31	15467.32
894.48	15365.83
894.66	15391.88
894.83	15428.99
895.01	15450.29
895.18	15468.64
895.36	15408.83
895.53	15496.49
895.71	15382.54
895.89	15454.71
896.06	15347.40
896.24	15411.21
896.41	15397.28
896.59	15457.33
896.76	15216.98
896.94	15348.62
897.11	15305.54
897.29	15361.16
897.46	15134.33
897.64	15193.55
897.81	15175.28
897.99	15017.35
898.16	15198.88
898.34	15133.67
898.51	15059.53
898.69	15002.93
898.86	15048.72
899.04	15048.88
899.21	14982.61
899.39	15093.37
899.56	14983.51
899.74	15137.27
899.91	15032.09
900.09	14977.21
900.26	15015.30
900.44	14842.04
900.61	14930.43
900.79	14976.55
900.96	14838.68
901.14	14841.06
901.31	14797.15
901.49	14800.18
901.66	14764.30
901.84	14803.86
902.01	14653.71
902.19	14716.87
902.36	14637.16
902.54	14657.56
902.71	14609.14
902.88	14679.02
903.06	14426.55
903.23	14676.97
903.41	14508.47
903.58	14460.30
903.76	14320.05
903.93	14505.76
904.11	14542.95
904.28	14457.51
904.45	14414.01
904.63	14403.53
904.80	14250.34
904.98	14352.57
905.15	14180.14
905.33	14313.34
905.50	14166.13
905.68	14227.98
905.85	14083.96
906.02	14049.64
906.20	14098.46
906.37	13915.13
906.55	13875.48
906.72	14005.40
906.90	13856.88
907.07	13804.95
907.24	13832.31
907.42	13786.27
907.59	13710.82
907.77	13686.58
907.94	13631.53
908.11	13664.87
908.29	13584.75
908.46	13587.04
908.64	13531.26
908.81	13599.33
908.98	13484.07
909.16	13611.54
909.33	13495.13
909.51	13458.10
909.68	13447.29
909.85	13474.00
910.03	13424.60
910.20	13335.31
910.37	13319.82
910.55	13237.74
910.72	13206.37
910.90	13168.85
911.07	13154.59
911.24	13059.49
911.42	13157.54
911.59	12989.94
911.76	13018.45
911.94	12897.86
912.11	12935.87
912.29	12860.51
912.46	12780.72
912.63	12757.53
912.81	12637.85
912.98	12740.50
913.15	12576.82
913.33	12627.86
913.50	12600.99
913.67	12538.65
913.85	12469.43
914.02	12508.75
914.19	12438.22
914.37	12374.89
914.54	12400.70
914.71	12363.10
914.89	12321.32
915.06	12345.89
915.23	12247.34
915.41	12157.23
915.58	12094.07
915.75	12148.71
915.93	12061.88
916.10	11982.75
916.27	11978.81
916.45	11923.03
916.62	11841.85
916.79	11965.95
916.97	11810.39
917.14	11791.06
917.31	11710.69
917.49	11746.98
917.66	11690.46
917.83	11615.59
918.00	11624.93
918.18	11578.56
918.35	11546.69
918.52	11586.34
918.70	11477.80
918.87	11502.79
919.04	11504.26
919.21	11535.88
919.39	11420.95
919.56	11477.64
919.73	11415.54
919.91	11428.08
920.08	11404.40
920.25	11291.76
920.42	11347.88
920.60	11185.60
920.77	11067.47
920.94	11189.77
921.11	10989.56
921.29	11066.57
921.46	10905.02
921.63	11034.87
921.81	10887.98
921.98	10941.72
922.15	10860.38
922.32	10911.33
922.50	10780.34
922.67	10819.01
922.84	10754.29
923.01	10674.59
923.19	10680.98
923.36	10686.87
923.53	10499.44
923.70	10549.25
923.87	10510.99
924.05	10538.44
924.22	10409.66
924.39	10448.16
924.56	10327.33
924.74	10343.72
924.91	10339.38
925.08	10281.70
925.25	10300.46
925.43	10245.50
925.60	10121.72
925.77	10274.25
925.94	10148.09
926.11	10151.13
926.29	10110.41
926.46	10113.28
926.63	10105.58
926.80	10083.13
926.97	9973.20
927.15	10038.24
927.32	9919.21
927.49	9928.39
927.66	9937.15
927.83	9954.27
928.01	9798.96
928.18	9799.86
928.35	9707.78
928.52	9808.38
928.69	9642.98
928.87	9668.30
929.04	9606.94
929.21	9646.75
929.38	9555.08
929.55	9574.01
929.72	9505.61
929.90	9521.66
930.07	9485.54
930.24	9449.08
930.41	9393.30
930.58	9379.78
930.75	9407.55
930.93	9327.43
931.10	9273.12
931.27	9198.25
931.44	9184.57
931.61	9152.62
931.78	9196.36
931.95	9089.21
932.13	9048.66
932.30	9137.46
932.47	8996.56
932.64	9034.33
932.81	9042.60
932.98	9042.03
933.15	8967.32
933.33	8898.18
933.50	8963.80
933.67	8877.37
933.84	8874.59
934.01	8905.39
934.18	8859.92
934.35	8813.88
934.52	8790.62
934.70	8803.15
934.87	8763.01
935.04	8690.51
935.21	8717.47
935.38	8701.00
935.55	8629.89
935.72	8689.45
935.89	8563.70
936.06	8634.65
936.24	8538.47
936.41	8651.03
936.58	8530.69
936.75	8536.18
936.92	8501.69
937.09	8508.49
937.26	8435.26
937.43	8414.69
937.60	8421.58
937.77	8425.92
937.94	8388.07
938.12	8366.12
938.29	8328.60
938.46	8339.74
938.63	8243.07
938.80	8287.72
938.97	8214.48
939.14	8191.14
939.31	8153.21
939.48	8135.02
939.65	8095.05
939.82	8085.87
939.99	8042.54
940.16	8043.93
940.33	7989.95
940.50	7977.58
940.67	7954.39
940.85	7996.99
941.02	7955.62
941.19	7982.49
941.36	7943.74
941.53	7943.66
941.70	7930.96
941.87	7897.21
942.04	7901.72
942.21	7918.76
942.38	7874.36
942.55	7777.28
942.72	7797.93
942.89	7805.05
943.06	7698.72
943.23	7716.25
943.40	7696.02
943.57	7702.82
943.74	7723.87
943.91	7675.62
944.08	7652.60
944.25	7674.72
944.42	7557.41
944.59	7533.41
944.76	7580.11
944.93	7537.59
945.10	7499.50
945.27	7510.80
945.44	7403.73
945.61	7457.56
945.78	7375.80
945.95	7393.25
946.12	7309.53
946.29	7382.44
946.46	7321.82
946.63	7309.12
946.80	7302.16
946.97	7273.98
947.14	7239.41
947.31	7320.42
947.48	7208.60
947.65	7204.18
947.82	7204.67
947.99	7221.14
948.16	7155.03
948.33	7215.16
948.50	7117.18
948.67	7143.64
948.84	7102.19
949.01	7069.59
949.18	7060.58
949.35	7098.10
949.52	7012.24
949.68	7035.18
949.85	7030.35
950.02	7002.33
950.19	6966.86
950.36	6973.83
950.53	6916.40
950.70	6910.34
950.87	6883.71
951.04	6918.12
951.21	6843.16
951.38	6787.13
951.55	6829.81
951.72	6804.42
951.89	6784.18
952.06	6832.19
952.23	6802.29
952.39	6788.69
952.56	6736.42
952.73	6771.65
952.90	6730.28
953.07	6771.57
953.24	6666.55
953.41	6710.29
953.58	6635.34
953.75	6679.08
953.92	6642.14
954.09	6651.64
954.25	6592.41
954.42	6631.00
954.59	6604.94
954.76	6544.73
954.93	6533.84
955.10	6542.60
955.27	6495.50
955.44	6479.04
955.61	6492.39
955.77	6487.06
955.94	6475.19
956.11	6461.34
956.28	6470.19
956.45	6440.45
956.62	6459.87
956.79	6440.21
956.96	6423.49
957.12	6427.51
957.29	6376.31
957.46	6351.41
957.63	6337.56
957.80	6320.77
957.97	6301.52
958.14	6331.66
958.30	6255.97
958.47	6273.50
958.64	6256.79
958.81	6295.05
958.98	6207.72
959.15	6228.04
959.32	6255.56
959.48	6238.19
959.65	6179.87
959.82	6203.95
959.99	6157.01
960.16	6175.20
960.33	6158.82
960.49	6125.72
960.66	6106.96
960.83	6117.77
961.00	6106.88
961.17	6075.75
961.33	6077.55
961.50	6069.03
961.67	5992.77
961.84	6040.52
962.01	6009.97
962.18	6009.56
962.34	6001.20
962.51	5984.57
962.68	5898.56
962.85	5954.43
963.02	5922.23
963.18	5948.78
963.35	5873.25
963.52	5901.10
963.69	5899.71
963.86	5900.69
964.02	5860.71
964.19	5898.97
964.36	5867.76
964.53	5864.48
964.69	5796.08
964.86	5858.42
965.03	5774.37
965.20	5831.47
965.37	5760.61
965.53	5770.85
965.70	5759.13
965.87	5748.65
966.04	5706.30
966.20	5704.17
966.37	5704.41
966.54	5673.94
966.71	5688.19
966.87	5642.97
967.04	5647.89
967.21	5658.13
967.38	5628.88
967.54	5644.78
967.71	5597.59
967.88	5622.17
968.05	5591.77
968.21	5563.92
968.38	5539.18
968.55	5550.98
968.72	5510.35
968.88	5520.01
969.05	5526.89
969.22	5506.50
969.39	5495.03
969.55	5493.47
969.72	5460.54
969.89	5487.33
970.05	5495.44
970.22	5474.22
970.39	5462.92
970.56	5469.55
970.72	5455.62
970.89	5459.48
971.06	5423.02
971.22	5453.66
971.39	5427.04
971.56	5462.18
971.73	5410.49
971.89	5429.00
972.06	5397.38
972.23	5421.87
972.39	5374.36
972.56	5394.68
972.73	5329.80
972.89	5389.52
973.06	5378.54
973.23	5390.42
973.39	5324.80
973.56	5353.88
973.73	5321.93
973.89	5312.51
974.06	5284.58
974.23	5292.44
974.39	5264.84
974.56	5258.86
974.73	5233.63
974.89	5242.64
975.06	5240.18
975.23	5254.60
975.39	5187.01
975.56	5226.91
975.73	5188.98
975.89	5193.24
976.06	5164.90
976.23	5174.07
976.39	5172.51
976.56	5159.65
976.73	5132.78
976.89	5150.23
977.06	5119.59
977.23	5115.74
977.39	5094.36
977.56	5116.81
977.72	5067.82
977.89	5117.46
978.06	5083.88
978.22	5075.69
978.39	5057.50
978.56	5084.78
978.72	5053.90
978.89	5064.54
979.05	5033.66
979.22	5024.40
979.39	5010.89
979.55	4990.82
979.72	5005.32
979.88	5017.52
980.05	4966.16
980.22	5021.13
980.38	4975.09
980.55	4952.32
980.71	4949.12
980.88	4936.92
981.05	4936.42
981.21	4942.65
981.38	4934.05
981.54	4934.79
981.71	4897.27
981.88	4904.80
982.04	4882.52
982.21	4879.49
982.37	4870.23
982.54	4886.94
982.70	4857.13
982.87	4862.86
983.04	4832.31
983.20	4885.88
983.37	4819.36
983.53	4871.95
983.70	4855.08
983.86	4844.43
984.03	4820.92
984.20	4800.36
984.36	4804.45
984.53	4793.23
984.69	4763.58
984.86	4754.81
985.02	4764.48
985.19	4761.94
985.35	4734.90
985.52	4749.08
985.68	4720.16
985.85	4745.64
986.02	4727.53
986.18	4737.69
986.35	4736.95
986.51	4764.07
986.68	4736.79
986.84	4716.96
987.01	4706.97
987.17	4728.35
987.34	4697.55
987.50	4687.23
987.67	4654.38
987.83	4698.86
988.00	4656.59
988.16	4635.95
988.33	4639.63
988.49	4676.09
988.66	4640.78
988.82	4650.36
988.99	4607.85
989.15	4646.10
989.32	4611.86
989.48	4615.71
989.65	4593.43
989.81	4585.98
989.98	4574.18
990.14	4560.58
990.31	4555.91
990.47	4560.91
990.64	4539.04
990.80	4544.93
990.97	4540.35
991.13	4535.92
991.30	4525.27
991.46	4506.51
991.63	4482.92
991.79	4509.55
991.95	4464.00
992.12	4490.95
992.28	4480.87
992.45	4472.68
992.61	4486.44
992.78	4481.04
992.94	4465.23
993.11	4500.78
993.27	4448.60
993.44	4464.24
993.60	4465.64
993.76	4462.69
993.93	4452.37
994.09	4447.86
994.26	4457.44
994.42	4438.19
994.59	4403.71
994.75	4417.22
994.91	4410.34
995.08	4380.93
995.24	4402.56
995.41	4409.69
995.57	4390.76
995.74	4364.96
995.90	4350.70
996.06	4370.20
996.23	4349.48
996.39	4347.59
996.56	4312.78
996.72	4361.44
996.88	4335.14
997.05	4342.19
997.21	4313.60
997.38	4322.69
997.54	4291.64
997.70	4334.89
997.87	4316.79
998.03	4325.23
998.20	4296.56
998.36	4306.71
998.52	4279.93
998.69	4318.26
998.85	4273.29
999.02	4269.28
999.18	4235.20
999.34	4257.24
999.51	4259.28
999.67	4282.63
999.83	4253.47
1000.00	4256.83
1000.16	4236.92
1000.33	4219.63
1000.49	4224.71
1000.65	4271.65
1000.82	4242.24
1000.98	4227.01
1001.14	4219.72
1001.31	4224.39
1001.47	4224.55
1001.63	4239.46
1001.80	4196.86
1001.96	4177.77
1002.12	4198.58
1002.29	4206.28
1002.45	4172.61
1002.61	4179.33
1002.78	4155.08
1002.94	4187.03
1003.10	4160.65
1003.27	4170.57
1003.43	4132.31
1003.59	4153.61
1003.76	4167.53
1003.92	4156.64
1004.08	4130.18
1004.25	4154.76
1004.41	4104.62
1004.57	4121.00
1004.74	4104.13
1004.90	4146.40
1005.06	4085.12
1005.23	4096.84
1005.39	4082.67
1005.55	4104.87
1005.71	4092.74
1005.88	4083.24
1006.04	4105.69
1006.20	4101.75
1006.37	4056.21
1006.53	4063.33
1006.69	4056.45
1006.85	4073.41
1007.02	4055.80
1007.18	4044.33
1007.34	4035.56
1007.51	4067.35
1007.67	4018.11
1007.83	4064.64
1007.99	4028.68
1008.16	4035.65
1008.32	3994.03
1008.48	4043.18
1008.64	4006.65
1008.81	4037.53
1008.97	3986.82
1009.13	3995.75
1009.29	3988.95
1009.46	4004.43
1009.62	3998.13
1009.78	3985.84
1009.95	3995.01
1010.11	3976.09
1010.27	3962.33
1010.43	3975.35
1010.59	3978.47
1010.76	3969.95
1010.92	3954.38
1011.08	3969.86
1011.24	3948.65
1011.41	3990.51
1011.57	3957.82
1011.73	3954.55
1011.89	3912.60
1012.06	3934.80
1012.22	3920.47
1012.38	3942.34
1012.54	3905.72
1012.70	3916.78
1012.87	3891.88
1013.03	3916.95
1013.19	3907.28
1013.35	3934.23
1013.51	3893.35
1013.68	3907.28
1013.84	3891.55
1014.00	3918.50
1014.16	3879.59
1014.32	3877.46
1014.49	3867.88
1014.65	3903.18
1014.81	3850.51
1014.97	3874.02
1015.13	3879.75
1015.30	3874.59
1015.46	3856.33
1015.62	3861.90
1015.78	3837.73
1015.94	3841.42
1016.10	3825.20
1016.27	3832.57
1016.43	3827.90
1016.59	3836.17
1016.75	3828.06
1016.91	3835.35
1017.07	3802.50
1017.24	3822.82
1017.40	3813.24
1017.56	3829.13
1017.72	3788.74
1017.88	3810.04
1018.04	3783.83
1018.21	3808.24
1018.37	3797.84
1018.53	3786.20
1018.69	3782.19
1018.85	3798.24
1019.01	3757.78
1019.17	3785.30
1019.34	3775.31
1019.50	3782.84
1019.66	3755.65
1019.82	3761.63
1019.98	3761.14
1020.14	3787.27
1020.30	3753.93
1020.46	3749.34
1020.63	3727.88
1020.79	3727.30
1020.95	3738.44
1021.11	3726.73
1021.27	3703.87
1021.43	3708.05
1021.59	3740.49
1021.75	3705.19
1021.91	3678.89
1022.07	3705.43
1022.24	3686.51
1022.40	3687.90
1022.56	3688.56
1022.72	3717.64
1022.88	3686.84
1023.04	3696.17
1023.20	3688.31
1023.36	3684.95
1023.52	3678.07
1023.68	3701.58
1023.84	3673.73
1024.01	3681.10
1024.17	3671.84
1024.33	3696.09
1024.49	3669.06
1024.65	3664.55
1024.81	3677.99
1024.97	3667.91
1025.13	3649.64
1025.29	3669.96
1025.45	3639.32
1025.61	3670.78
1025.77	3644.40
1025.93	3646.86
1026.09	3629.82
1026.25	3663.90
1026.41	3648.25
1026.57	3643.17
1026.73	3654.07
1026.90	3646.78
1027.06	3633.18
1027.22	3647.68
1027.38	3634.65
1027.54	3672.99
1027.70	3631.05
1027.86	3640.88
1028.02	3616.63
1028.18	3623.35
1028.34	3636.78
1028.50	3631.46
1028.66	3589.84
1028.82	3626.71
1028.98	3600.08
1029.14	3599.18
1029.30	3614.09
1029.46	3612.62
1029.62	3619.83
1029.78	3589.35
1029.94	3587.30
1030.10	3592.71
1030.26	3576.41
1030.42	3590.83
1030.58	3573.79
1030.74	3587.55
1030.90	3557.90
1031.06	3582.47
1031.22	3539.95
1031.38	3572.80
1031.54	3550.19
1031.70	3556.26
1031.86	3566.58
1032.02	3550.77
1032.18	3532.75
1032.34	3556.83
1032.50	3557.65
1032.66	3562.32
1032.82	3542.17
1032.98	3554.86
1033.14	3534.14
1033.30	3555.11
1033.45	3526.36
1033.61	3552.57
1033.77	3535.78
1033.93	3540.12
1034.09	3547.66
1034.25	3542.49
1034.41	3517.75
1034.57	3522.51
1034.73	3527.99
1034.89	3540.36
1035.05	3522.01
1035.21	3533.57
1035.37	3523.98
1035.53	3505.06
1035.69	3505.55
1035.85	3528.16
1036.01	3499.57
1036.16	3513.90
1036.32	3508.01
1036.48	3497.60
1036.64	3480.89
1036.80	3493.34
1036.96	3496.62
1037.12	3484.09
1037.28	3482.53
1037.44	3477.78
1037.60	3476.96
1037.76	3477.29
1037.91	3476.55
1038.07	3480.15
1038.23	3467.54
1038.39	3470.90
1038.55	3459.26
1038.71	3478.60
1038.87	3471.06
1039.03	3473.60
1039.19	3456.64
1039.35	3467.87
1039.50	3480.81
1039.66	3459.92
1039.82	3447.30
1039.98	3463.69
1040.14	3448.21
1040.30	3465.25
1040.46	3436.00
1040.62	3441.00
1040.77	3433.21
1040.93	3461.89
1041.09	3449.35
1041.25	3439.77
1041.41	3462.30
1041.57	3443.45
1041.73	3443.45
1041.88	3443.45

