SpectraSuite Data File
++++++++++++++++++++++++++++++++++++
Date: Tue Sep 20 11:45:34 EDT 2022
User: Laboratoire
Dark Spectrum Present: No
Reference Spectrum Present: No
Number of Sampled Component Spectra: 1
Spectrometers: FLMT00174
Integration Time (usec): 15000 (FLMT00174)
Spectra Averaged: 25 (FLMT00174)
Boxcar Smoothing: 0 (FLMT00174)
Correct for Electrical Dark: No (FLMT00174)
Strobe/Lamp Enabled: No (FLMT00174)
Correct for Detector Non-linearity: No (FLMT00174)
Correct for Stray Light: No (FLMT00174)
Number of Pixels in Processed Spectrum: 3648
>>>>>Begin Processed Spectral Data<<<<<
345.74	3151.91
345.96	3151.91
346.18	3151.91
346.39	3157.56
346.61	3195.57
346.83	3208.43
347.05	3201.14
347.27	3196.96
347.49	3187.62
347.71	3197.21
347.93	3194.75
348.15	3208.02
348.36	3193.77
348.58	3198.11
348.80	3205.89
349.02	3222.77
349.24	3219.65
349.46	3300.75
349.68	3309.35
349.90	3334.26
350.11	3310.91
350.33	3320.09
350.55	3308.37
350.77	3303.87
350.99	3305.83
351.21	3329.75
351.43	3294.28
351.65	3348.51
351.86	3301.00
352.08	3335.81
352.30	3300.18
352.52	3327.05
352.74	3304.19
352.96	3300.92
353.18	3335.90
353.39	3342.37
353.61	3317.87
353.83	3325.57
354.05	3358.75
354.27	3316.07
354.49	3324.67
354.70	3312.71
354.92	3311.81
355.14	3301.90
355.36	3303.78
355.58	3320.99
355.80	3301.00
356.02	3327.29
356.23	3320.90
356.45	3329.26
356.67	3315.66
356.89	3335.65
357.11	3308.37
357.33	3329.34
357.54	3321.31
357.76	3308.29
357.98	3296.08
358.20	3331.14
358.42	3312.22
358.63	3326.07
358.85	3320.66
359.07	3325.25
359.29	3309.93
359.51	3320.33
359.73	3307.55
359.94	3317.05
360.16	3319.76
360.38	3320.66
360.60	3319.10
360.82	3319.92
361.03	3315.33
361.25	3332.37
361.47	3343.76
361.69	3322.95
361.91	3320.90
362.12	3321.56
362.34	3306.98
362.56	3325.49
362.78	3317.55
363.00	3337.86
363.21	3311.81
363.43	3349.17
363.65	3297.39
363.87	3323.03
364.09	3349.41
364.30	3335.40
364.52	3314.60
364.74	3338.43
364.96	3320.90
365.17	3317.87
365.39	3336.14
365.61	3322.30
365.83	3320.74
366.05	3318.04
366.26	3321.07
366.48	3338.43
366.70	3330.65
366.92	3325.16
367.13	3334.50
367.35	3334.26
367.57	3332.54
367.79	3343.19
368.01	3325.49
368.22	3334.75
368.44	3321.15
368.66	3322.71
368.88	3336.96
369.09	3318.86
369.31	3336.96
369.53	3331.96
369.75	3317.14
369.96	3346.54
370.18	3330.98
370.40	3345.64
370.62	3334.50
370.83	3326.80
371.05	3345.81
371.27	3356.21
371.49	3332.62
371.70	3341.96
371.92	3330.49
372.14	3343.76
372.36	3319.51
372.57	3347.53
372.79	3330.24
373.01	3342.86
373.22	3328.77
373.44	3333.93
373.66	3326.64
373.88	3358.67
374.09	3318.36
374.31	3334.83
374.53	3327.62
374.75	3365.80
374.96	3336.88
375.18	3361.45
375.40	3329.92
375.61	3354.65
375.83	3351.79
376.05	3349.90
376.27	3353.51
376.48	3323.20
376.70	3327.05
376.92	3339.83
377.13	3328.36
377.35	3339.83
377.57	3351.87
377.79	3320.58
378.00	3341.38
378.22	3353.02
378.44	3330.98
378.65	3381.20
378.87	3358.34
379.09	3365.55
379.30	3342.53
379.52	3330.08
379.74	3340.40
379.96	3356.78
380.17	3361.13
380.39	3353.67
380.61	3339.17
380.82	3362.44
381.04	3359.49
381.26	3372.02
381.47	3347.45
381.69	3395.12
381.91	3351.71
382.12	3368.34
382.34	3387.91
382.56	3371.69
382.77	3367.11
382.99	3365.06
383.21	3371.04
383.42	3382.10
383.64	3373.33
383.86	3377.18
384.07	3388.65
384.29	3388.41
384.51	3372.51
384.72	3398.97
384.94	3391.85
385.16	3384.23
385.37	3397.58
385.59	3387.50
385.81	3404.95
386.02	3385.78
386.24	3394.47
386.46	3397.74
386.67	3410.44
386.89	3428.71
387.11	3437.64
387.32	3414.70
387.54	3434.28
387.76	3441.16
387.97	3453.86
388.19	3433.62
388.40	3446.57
388.62	3437.39
388.84	3463.20
389.05	3437.47
389.27	3460.17
389.49	3465.82
389.70	3425.02
389.92	3452.96
390.14	3468.03
390.35	3464.92
390.57	3472.13
390.78	3462.87
391.00	3431.17
391.22	3464.51
391.43	3464.26
391.65	3450.25
391.86	3489.00
392.08	3491.05
392.30	3483.84
392.51	3494.57
392.73	3499.41
392.95	3482.20
393.16	3462.38
393.38	3474.75
393.59	3465.41
393.81	3494.90
394.03	3492.52
394.24	3502.68
394.46	3486.95
394.67	3505.96
394.89	3500.96
395.11	3486.38
395.32	3514.48
395.54	3514.40
395.75	3519.72
395.97	3494.08
396.19	3484.25
396.40	3493.59
396.62	3515.22
396.83	3496.05
397.05	3506.61
397.26	3529.39
397.48	3504.81
397.70	3517.92
397.91	3527.18
398.13	3526.03
398.34	3523.90
398.56	3549.13
398.78	3545.85
398.99	3568.95
399.21	3532.09
399.42	3557.73
399.64	3526.36
399.85	3580.10
400.07	3580.67
400.29	3587.88
400.50	3566.66
400.72	3602.87
400.93	3587.06
401.15	3574.52
401.36	3595.74
401.58	3614.42
401.79	3620.07
402.01	3626.79
402.23	3631.54
402.44	3642.60
402.66	3644.48
402.87	3658.41
403.09	3648.42
403.30	3662.91
403.52	3657.84
403.73	3674.06
403.95	3663.90
404.16	3681.35
404.38	3711.08
404.60	3697.81
404.81	3716.49
405.03	3731.64
405.24	3761.87
405.46	3754.42
405.67	3770.06
405.89	3775.64
406.10	3767.53
406.32	3802.83
406.53	3818.23
406.75	3833.88
406.96	3830.93
407.18	3830.11
407.39	3837.07
407.61	3876.40
407.82	3852.39
408.04	3903.35
408.25	3888.93
408.47	3904.66
408.68	3898.68
408.90	3924.81
409.12	3937.83
409.33	3954.55
409.55	3931.20
409.76	3951.84
409.98	3946.68
410.19	3969.21
410.41	3998.70
410.62	3995.83
410.84	3990.26
411.05	4015.66
411.27	4030.89
411.48	4030.57
411.70	4023.28
411.91	4017.54
412.12	4028.19
412.34	4011.48
412.55	4044.33
412.77	4039.50
412.98	4046.21
413.20	4047.28
413.41	4047.03
413.63	4053.34
413.84	4055.55
414.06	4084.80
414.27	4057.76
414.49	4068.99
414.70	4068.25
414.92	4089.06
415.13	4065.79
415.35	4060.55
415.56	4086.68
415.78	4071.94
415.99	4089.55
416.21	4107.24
416.42	4099.79
416.63	4104.21
416.85	4099.46
417.06	4107.08
417.28	4078.82
417.49	4132.31
417.71	4088.89
417.92	4099.05
418.14	4096.43
418.35	4139.93
418.57	4118.79
418.78	4127.80
418.99	4099.54
419.21	4142.96
419.42	4164.91
419.64	4133.62
419.85	4142.22
420.07	4159.18
420.28	4146.15
420.50	4133.87
420.71	4151.31
420.92	4170.07
421.14	4208.82
421.35	4173.84
421.57	4169.75
421.78	4202.84
422.00	4204.40
422.21	4207.27
422.42	4231.76
422.64	4222.99
422.85	4261.25
423.07	4278.86
423.28	4249.54
423.50	4263.79
423.71	4300.16
423.92	4313.43
424.14	4307.04
424.35	4322.85
424.57	4364.39
424.78	4377.08
424.99	4390.27
425.21	4417.06
425.42	4411.32
425.64	4384.95
425.85	4446.80
426.06	4449.74
426.28	4467.52
426.49	4520.69
426.71	4524.45
426.92	4503.73
427.13	4524.78
427.35	4608.01
427.56	4628.66
427.78	4609.98
427.99	4655.93
428.20	4685.83
428.42	4706.56
428.63	4752.60
428.84	4709.02
429.06	4759.73
429.27	4792.08
429.49	4841.64
429.70	4891.94
429.91	4889.32
430.13	4928.56
430.34	4936.51
430.56	4985.00
430.77	5010.40
430.98	5008.35
431.20	5067.33
431.41	5126.15
431.62	5126.31
431.84	5125.33
432.05	5201.19
432.26	5203.89
432.48	5181.03
432.69	5296.62
432.91	5291.79
433.12	5350.85
433.33	5350.28
433.55	5441.13
433.76	5452.10
433.97	5433.02
434.19	5483.07
434.40	5544.10
434.61	5573.67
434.83	5608.40
435.04	5568.67
435.25	5664.19
435.47	5674.76
435.68	5661.00
435.89	5763.56
436.11	5724.07
436.32	5779.20
436.53	5772.49
436.75	5794.28
436.96	5843.18
437.17	5828.85
437.39	5833.52
437.60	5873.16
437.81	5901.18
438.03	5912.49
438.24	5907.24
438.45	6004.97
438.67	5964.50
438.88	5988.10
439.09	6065.84
439.31	6047.00
439.52	6066.08
439.73	6033.48
439.94	5993.09
440.16	6022.83
440.37	6016.69
440.58	6094.18
440.80	6093.44
441.01	6042.41
441.22	6153.16
441.44	6132.03
441.65	6065.84
441.86	6083.29
442.08	6143.33
442.29	6121.46
442.50	6116.14
442.71	6101.64
442.93	6149.80
443.14	6114.01
443.35	6165.78
443.57	6077.63
443.78	6140.22
443.99	6152.67
444.20	6082.47
444.42	6171.19
444.63	6154.88
444.84	6182.90
445.06	6207.39
445.27	6116.87
445.48	6111.63
445.69	6140.63
445.91	6141.78
446.12	6097.79
446.33	6146.53
446.54	6213.29
446.76	6108.68
446.97	6156.60
447.18	6147.76
447.39	6177.74
447.61	6196.33
447.82	6227.14
448.03	6180.36
448.25	6228.36
448.46	6242.21
448.67	6247.62
448.88	6198.38
449.10	6273.50
449.31	6286.69
449.52	6245.32
449.73	6262.69
449.95	6365.41
450.16	6276.29
450.37	6350.26
450.58	6461.59
450.79	6308.48
451.01	6393.43
451.22	6347.97
451.43	6401.70
451.64	6443.97
451.86	6436.85
452.07	6478.71
452.28	6500.33
452.49	6596.02
452.71	6517.62
452.92	6547.52
453.13	6603.96
453.34	6639.11
453.55	6683.26
453.77	6742.73
453.98	6736.42
454.19	6724.46
454.40	6768.29
454.62	6844.23
454.83	6770.42
455.04	6921.56
455.25	6838.74
455.46	7088.18
455.68	6972.68
455.89	6968.42
456.10	7057.46
456.31	7122.10
456.52	7157.65
456.74	7158.22
456.95	7295.03
457.16	7298.39
457.37	7371.62
457.58	7359.25
457.80	7410.62
458.01	7416.84
458.22	7698.81
458.43	7589.28
458.64	7673.49
458.86	7620.49
459.07	7718.88
459.28	7719.53
459.49	7909.50
459.70	8066.46
459.91	8015.34
460.13	8047.29
460.34	8126.34
460.55	8124.29
460.76	8333.18
460.97	8351.29
461.19	8334.74
461.40	8579.68
461.61	8577.96
461.82	8642.10
462.03	8729.18
462.24	8778.09
462.46	8812.49
462.67	8821.01
462.88	9010.49
463.09	9038.01
463.30	9219.38
463.51	9156.88
463.72	9355.29
463.94	9463.42
464.15	9498.97
464.36	9457.93
464.57	9774.14
464.78	9768.65
464.99	9860.15
465.20	9865.15
465.42	10097.47
465.63	10120.24
465.84	10152.60
466.05	10351.01
466.26	10417.69
466.47	10542.45
466.68	10536.14
466.90	10756.01
467.11	10705.14
467.32	10879.71
467.53	11060.10
467.74	10907.56
467.95	11086.31
468.16	11287.83
468.37	11420.70
468.59	11453.14
468.80	11650.81
469.01	11526.05
469.22	11702.01
469.43	12027.31
469.64	11887.89
469.85	12028.21
470.06	12142.49
470.28	12272.99
470.49	12097.19
470.70	12302.48
470.91	12582.15
471.12	12446.00
471.33	12757.37
471.54	12595.66
471.75	12671.52
471.96	12974.13
472.17	12921.54
472.39	13249.13
472.60	12964.13
472.81	13285.75
473.02	13219.06
473.23	13441.56
473.44	13512.42
473.65	13409.44
473.86	13549.36
474.07	13570.50
474.28	13599.25
474.49	13918.98
474.71	13841.81
474.92	14000.32
475.13	13873.60
475.34	13981.81
475.55	13936.84
475.76	14050.21
475.97	14304.41
476.18	14212.82
476.39	14427.28
476.60	14466.69
476.81	14454.07
477.02	14631.43
477.23	14582.36
477.44	14566.63
477.65	14689.42
477.87	14896.60
478.08	14844.74
478.29	14864.98
478.50	15137.77
478.71	14964.51
478.92	15077.39
479.13	15076.00
479.34	15082.06
479.55	15224.93
479.76	15140.71
479.97	15189.95
480.18	15534.33
480.39	15219.19
480.60	15516.72
480.81	15536.14
481.02	15525.49
481.23	15516.31
481.44	15734.38
481.65	15820.31
481.86	15990.38
482.07	15637.14
482.28	16190.42
482.49	15944.67
482.71	15946.55
482.92	16065.00
483.13	16258.91
483.34	16120.63
483.55	16227.53
483.76	16230.73
483.97	16392.84
484.18	16297.49
484.39	16442.40
484.60	16368.60
484.81	16656.29
485.02	16534.97
485.23	16769.01
485.44	16799.90
485.65	16949.40
485.86	16833.89
486.07	17122.00
486.28	17023.62
486.49	17177.62
486.70	17286.25
486.91	17364.97
487.12	17310.74
487.33	17266.59
487.54	17624.25
487.75	17572.23
487.96	17666.35
488.17	17637.93
488.38	17846.82
488.59	17871.31
488.80	17987.39
489.01	17999.52
489.22	18255.27
489.43	18203.98
489.64	18142.55
489.85	18545.59
490.06	18305.81
490.26	18608.25
490.47	18531.66
490.68	18819.52
490.89	19072.65
491.10	18809.36
491.31	19128.44
491.52	19320.46
491.73	19261.80
491.94	19282.04
492.15	19481.18
492.36	19629.86
492.57	19653.95
492.78	19703.34
492.99	19876.27
493.20	20091.23
493.41	20153.00
493.62	20275.55
493.83	20320.19
494.04	20422.02
494.25	20731.18
494.46	20824.40
494.67	20736.67
494.88	21034.20
495.08	21190.25
495.29	21339.10
495.50	21543.07
495.71	21500.07
495.92	21872.55
496.13	21918.26
496.34	21886.81
496.55	22064.41
496.76	22463.10
496.97	22164.84
497.18	22633.17
497.39	22665.12
497.60	23185.63
497.81	22827.15
498.02	23217.33
498.22	23153.35
498.43	23669.85
498.64	23764.79
498.85	23842.62
499.06	24038.16
499.27	24441.85
499.48	24087.14
499.69	24576.44
499.90	24784.85
500.11	25040.60
500.32	25383.51
500.52	25266.53
500.73	25837.17
500.94	25993.23
501.15	26091.78
501.36	26232.76
501.57	26133.06
501.78	26528.81
501.99	26896.55
502.20	26996.57
502.41	27115.76
502.61	27201.20
502.82	27686.08
503.03	27563.28
503.24	28117.05
503.45	28047.18
503.66	28520.67
503.87	28552.37
504.08	28987.36
504.28	28934.11
504.49	29201.99
504.70	29429.72
504.91	29819.57
505.12	29710.29
505.33	30315.67
505.54	30408.65
505.75	30593.21
505.95	30965.21
506.16	30943.74
506.37	30944.56
506.58	31558.95
506.79	31335.64
507.00	31945.12
507.21	31809.79
507.41	31961.99
507.62	32354.06
507.83	32827.46
508.04	32491.27
508.25	33094.44
508.46	32949.03
508.67	33605.45
508.87	33420.15
509.08	33943.36
509.29	33918.46
509.50	34256.37
509.71	34444.95
509.92	34726.10
510.12	34627.96
510.33	34907.05
510.54	34949.90
510.75	35264.71
510.96	35525.62
511.17	35852.72
511.37	35775.06
511.58	36120.27
511.79	35945.95
512.00	36028.36
512.21	36598.51
512.42	36516.84
512.62	36675.43
512.83	37013.35
513.04	36925.04
513.25	37323.08
513.46	36675.02
513.66	37664.77
513.87	37348.48
514.08	37682.79
514.29	37449.24
514.50	37501.01
514.71	37876.12
514.91	37694.67
515.12	37725.22
515.33	38086.40
515.54	37989.74
515.75	38428.99
515.95	38145.14
516.16	38126.54
516.37	38486.74
516.58	38562.43
516.78	38283.09
516.99	38639.19
517.20	38466.01
517.41	38470.03
517.62	38602.00
517.82	38491.82
518.03	38986.28
518.24	39247.11
518.45	38564.73
518.66	38960.72
518.86	38627.89
519.07	39060.50
519.28	38359.44
519.49	38974.98
519.69	38931.15
519.90	38945.89
520.11	38905.18
520.32	38683.26
520.52	39090.40
520.73	38565.55
520.94	38956.54
521.15	38867.17
521.36	38375.74
521.56	39119.56
521.77	38275.31
521.98	38824.74
522.19	38261.14
522.39	38634.28
522.60	38276.37
522.81	38385.73
523.02	38077.47
523.22	38403.18
523.43	38493.21
523.64	38142.52
523.84	38169.39
524.05	38463.88
524.26	38279.57
524.47	37972.70
524.67	38105.49
524.88	38135.80
525.09	38275.88
525.30	37908.07
525.50	37733.41
525.71	37738.25
525.92	37812.14
526.13	37962.13
526.33	37668.45
526.54	37352.57
526.75	37550.33
526.95	37712.12
527.16	37060.86
527.37	37522.80
527.58	37558.68
527.78	37414.10
527.99	37564.83
528.20	37638.23
528.40	37224.37
528.61	37083.64
528.82	37447.93
529.03	37274.59
529.23	37137.62
529.44	37276.39
529.65	37147.61
529.85	37099.20
530.06	36939.95
530.27	36958.87
530.47	36507.34
530.68	37228.96
530.89	36497.59
531.09	36940.60
531.30	36789.14
531.51	36524.05
531.72	36887.11
531.92	36832.96
532.13	36928.89
532.34	36720.41
532.54	36625.63
532.75	36730.32
532.96	36583.77
533.16	36815.43
533.37	36908.90
533.58	36561.40
533.78	36852.87
533.99	36897.68
534.20	36477.93
534.40	36673.96
534.61	36824.69
534.82	36805.93
535.02	36928.40
535.23	36846.40
535.44	36994.10
535.64	36826.00
535.85	36983.61
536.06	36889.73
536.26	36750.80
536.47	36843.70
536.68	37244.03
536.88	36770.62
537.09	37317.35
537.29	36834.11
537.50	37449.98
537.71	37168.42
537.91	37258.29
538.12	37389.44
538.33	37114.19
538.53	37258.04
538.74	37376.17
538.95	37385.75
539.15	37386.82
539.36	37687.54
539.56	37927.73
539.77	37519.69
539.98	37633.56
540.18	37985.23
540.39	37760.69
540.60	38022.59
540.80	38175.45
541.01	38189.21
541.21	38196.99
541.42	38366.97
541.63	38353.70
541.83	38671.88
542.04	38699.65
542.25	38684.66
542.45	38825.72
542.66	38801.88
542.86	39140.61
543.07	38416.04
543.28	39265.62
543.48	39164.62
543.69	39474.52
543.89	39373.18
544.10	39862.16
544.31	39755.33
544.51	39766.23
544.72	39942.27
544.92	39901.97
545.13	40356.21
545.33	40416.25
545.54	40264.95
545.75	40686.18
545.95	40498.66
546.16	40710.01
546.36	41188.34
546.57	40607.04
546.78	40161.65
546.98	40827.32
547.19	40204.41
547.39	41257.40
547.60	41486.85
547.80	42116.97
548.01	42255.25
548.22	42004.25
548.42	42231.33
548.63	42684.83
548.83	42617.25
549.04	43047.65
549.24	42838.43
549.45	43223.45
549.65	43663.51
549.86	43229.02
550.07	43535.64
550.27	44079.66
550.48	44283.97
550.68	44131.35
550.89	44183.53
551.09	44655.96
551.30	44534.64
551.50	44982.00
551.71	44834.71
551.91	45170.33
552.12	45381.59
552.33	45855.41
552.53	45482.85
552.74	46281.96
552.94	46442.03
553.15	46441.71
553.35	46721.29
553.56	46497.98
553.76	47272.77
553.97	46962.54
554.17	47260.57
554.38	48113.83
554.58	47662.70
554.79	48371.88
554.99	47993.57
555.20	48277.50
555.40	48883.38
555.61	48696.36
555.81	48557.75
556.02	49646.61
556.22	49590.17
556.43	49613.76
556.63	49782.52
556.84	49841.33
557.04	50480.55
557.25	50089.63
557.45	50614.56
557.66	50877.85
557.86	50841.32
558.07	51561.38
558.27	51359.37
558.48	51555.48
558.68	51783.55
558.89	52123.67
559.09	52259.82
559.30	52157.34
559.50	52633.29
559.71	52256.38
559.91	53238.34
560.12	53002.99
560.32	53286.26
560.53	53682.75
560.73	53507.28
560.94	54141.49
561.14	53837.25
561.35	54590.66
561.55	54448.20
561.76	54711.32
561.96	54181.80
562.17	54832.32
562.37	55253.05
562.57	55081.02
562.78	55136.56
562.98	55623.81
563.19	55747.02
563.39	56040.45
563.60	56237.88
563.80	55793.30
564.01	56622.32
564.21	56418.59
564.42	56324.55
564.62	56743.89
564.82	57107.36
565.03	56703.09
565.23	56851.78
565.44	57187.48
565.64	57064.27
565.85	57462.32
566.05	57321.17
566.25	57852.17
566.46	57419.72
566.66	57732.81
566.87	57803.75
567.07	57826.69
567.28	58087.11
567.48	58408.07
567.68	57779.26
567.89	58827.66
568.09	58365.80
568.30	58419.46
568.50	58856.41
568.71	58614.34
568.91	59023.69
569.11	58608.28
569.32	58672.34
569.52	58771.38
569.73	58257.09
569.93	58961.35
570.13	58823.81
570.34	58745.82
570.54	59248.88
570.75	59001.98
570.95	58979.86
571.15	58738.45
571.36	59334.82
571.56	58634.98
571.77	58648.99
571.97	58110.13
572.17	58955.86
572.38	58771.46
572.58	58982.16
572.79	58756.31
572.99	58818.56
573.19	58749.01
573.40	58571.09
573.60	58685.86
573.81	58610.74
574.01	58733.29
574.21	58489.25
574.42	58534.39
574.62	58181.97
574.82	58616.14
575.03	58136.43
575.23	58713.05
575.43	58158.95
575.64	58041.65
575.84	58501.54
576.05	57779.42
576.25	57912.62
576.45	57784.67
576.66	58248.57
576.86	57547.51
577.06	57894.03
577.27	57728.63
577.47	57682.19
577.67	57519.91
577.88	56940.99
578.08	57495.66
578.28	57482.88
578.49	57153.89
578.69	57282.83
578.89	56723.49
579.10	56801.31
579.30	57218.36
579.50	56574.07
579.71	56116.23
579.91	56628.55
580.11	56156.04
580.32	56019.48
580.52	55875.06
580.72	56379.68
580.93	55630.61
581.13	55794.45
581.33	56060.85
581.54	55379.78
581.74	55367.82
581.94	55364.30
582.15	55570.32
582.35	55141.72
582.55	55085.36
582.76	54621.29
582.96	55179.90
583.16	54635.87
583.37	54720.41
583.57	54244.14
583.77	54700.67
583.97	53602.06
584.18	54658.07
584.38	54348.34
584.58	53821.03
584.79	54185.24
584.99	53901.72
585.19	53672.35
585.40	53472.87
585.60	53703.31
585.80	52982.75
586.00	53226.38
586.21	53033.22
586.41	53077.04
586.61	53111.04
586.82	52793.85
587.02	52645.33
587.22	52882.57
587.42	52045.44
587.63	52652.38
587.83	51907.82
588.03	52143.66
588.23	51687.37
588.44	51951.23
588.64	51541.72
588.84	51782.07
589.05	51872.84
589.25	51699.41
589.45	51675.99
589.65	51323.00
589.86	51437.77
590.06	51300.47
590.26	51003.92
590.46	51299.24
590.67	50555.17
590.87	51124.75
591.07	51146.95
591.27	50566.81
591.48	50715.90
591.68	50120.76
591.88	50983.44
592.08	50085.12
592.29	50438.28
592.49	50241.67
592.69	50434.75
592.89	50006.97
593.10	49914.08
593.30	49724.35
593.50	50318.02
593.70	49300.92
593.90	50010.50
594.11	49833.47
594.31	49782.02
594.51	49954.38
594.71	49969.54
594.92	49841.25
595.12	49648.33
595.32	49629.57
595.52	49743.11
595.72	49081.62
595.93	49679.38
596.13	49291.09
596.33	48885.83
596.53	49276.91
596.73	49062.12
596.94	49014.36
597.14	49261.84
597.34	49005.03
597.54	49298.79
597.74	48836.85
597.95	48985.04
598.15	48841.52
598.35	48971.11
598.55	48982.74
598.75	48800.72
598.96	49257.17
599.16	48780.57
599.36	48784.01
599.56	48702.01
599.76	48654.33
599.97	49081.46
600.17	48843.07
600.37	48983.64
600.57	48241.79
600.77	49098.33
600.97	48774.18
601.18	49231.45
601.38	48749.93
601.58	49031.32
601.78	48844.14
601.98	48569.79
602.18	48922.37
602.39	49322.13
602.59	49073.26
602.79	48937.85
602.99	48823.74
603.19	48936.79
603.39	48665.14
603.60	48714.13
603.80	48888.78
604.00	48831.85
604.20	48947.52
604.40	49133.64
604.60	48875.84
604.80	48970.86
605.01	49192.37
605.21	49064.25
605.41	49015.84
605.61	48690.78
605.81	49082.85
606.01	49397.25
606.21	48966.28
606.42	49365.14
606.62	49198.44
606.82	49670.21
607.02	49420.27
607.22	49623.02
607.42	49865.91
607.62	49259.55
607.82	49440.34
608.03	49499.40
608.23	49403.72
608.43	49272.74
608.63	49943.98
608.83	49846.66
609.03	49877.13
609.23	49971.99
609.43	50280.34
609.63	50051.05
609.84	49931.53
610.04	50580.32
610.24	50481.36
610.44	50675.10
610.64	50382.90
610.84	50724.58
611.04	51185.70
611.24	50943.88
611.44	50248.06
611.64	50946.66
611.85	50896.69
612.05	50911.36
612.25	51103.87
612.45	50957.72
612.65	51242.96
612.85	51540.00
613.05	51302.68
613.25	51905.93
613.45	51769.05
613.65	51848.34
613.85	51439.24
614.05	52010.46
614.25	52228.45
614.46	52139.32
614.66	51906.91
614.86	51937.39
615.06	52265.96
615.26	52683.01
615.46	51971.30
615.66	52716.68
615.86	52778.53
616.06	52515.33
616.26	52665.40
616.46	53264.64
616.66	52872.25
616.86	53474.68
617.06	53129.06
617.26	53660.06
617.46	53480.25
617.66	53371.79
617.86	53384.48
618.07	53779.09
618.27	53877.06
618.47	54004.85
618.67	54161.73
618.87	54288.05
619.07	54145.02
619.27	54103.81
619.47	54292.31
619.67	54797.58
619.87	54424.36
620.07	54966.83
620.27	55001.89
620.47	54775.55
620.67	55197.51
620.87	55322.68
621.07	55667.64
621.27	55592.77
621.47	55372.57
621.67	55810.67
621.87	55546.16
622.07	56096.08
622.27	56160.55
622.47	55962.63
622.67	56164.31
622.87	55919.13
623.07	56510.42
623.27	57037.49
623.47	56270.40
623.67	56852.68
623.87	57369.01
624.07	57287.09
624.27	57015.70
624.47	57497.13
624.67	57398.17
624.87	57803.59
625.07	57506.63
625.27	58084.33
625.47	57795.48
625.67	57850.94
625.87	58227.60
626.07	58138.23
626.27	58454.52
626.47	58532.59
626.67	58472.54
626.87	58264.06
627.07	58872.79
627.27	58943.08
627.47	59083.65
627.67	58866.08
627.87	58988.87
628.07	59464.33
628.27	59276.82
628.47	59214.72
628.67	60001.22
628.86	60061.52
629.06	59817.89
629.26	59798.07
629.46	60417.04
629.66	60191.28
629.86	59715.74
630.06	60457.59
630.26	60415.32
630.46	60938.54
630.66	60419.99
630.86	60689.75
631.06	60713.02
631.26	60614.06
631.46	61208.13
631.66	61216.57
631.86	60810.34
632.06	61507.22
632.26	61225.34
632.45	61279.57
632.65	61595.53
632.85	61751.75
633.05	61703.17
633.25	61803.85
633.45	61470.93
633.65	61663.52
633.85	62333.29
634.05	61424.15
634.25	61887.24
634.45	62035.68
634.65	62430.69
634.84	62049.77
635.04	62298.64
635.24	62019.37
635.44	62538.00
635.64	62072.87
635.84	62442.73
636.04	62436.26
636.24	62420.12
636.44	62662.36
636.64	62162.81
636.84	63292.56
637.03	62515.31
637.23	62905.24
637.43	62970.70
637.63	62652.85
637.83	62934.41
638.03	62996.99
638.23	62449.37
638.43	63059.82
638.62	63353.75
638.82	62323.87
639.02	63255.61
639.22	62930.97
639.42	63241.11
639.62	62794.90
639.82	63126.26
640.02	63075.96
640.21	63347.61
640.41	62735.34
640.61	63308.53
640.81	63058.19
641.01	62940.96
641.21	62914.42
641.41	63587.71
641.61	62920.73
641.80	62965.45
642.00	63326.88
642.20	63273.88
642.40	62568.15
642.60	63067.77
642.80	63173.04
642.99	62690.21
643.19	63166.73
643.39	62489.42
643.59	63013.79
643.79	62694.47
643.99	62901.48
644.19	62716.18
644.38	62152.90
644.58	62635.16
644.78	62418.65
644.98	62418.56
645.18	62631.23
645.38	62888.21
645.57	62337.30
645.77	62468.95
645.97	62252.76
646.17	62572.74
646.37	62433.88
646.56	62258.66
646.76	62241.37
646.96	62134.14
647.16	61770.42
647.36	62004.96
647.55	61789.35
647.75	61874.30
647.95	61375.49
648.15	61710.30
648.35	61527.70
648.55	61648.86
648.74	61449.79
648.94	61335.60
649.14	61533.60
649.34	60947.63
649.54	60978.84
649.73	60918.22
649.93	60592.35
650.13	60779.53
650.33	60505.11
650.52	60734.07
650.72	60938.38
650.92	60415.08
651.12	60173.83
651.32	60436.62
651.51	60487.33
651.71	60334.47
651.91	59963.46
652.11	59690.42
652.30	59491.20
652.50	59943.64
652.70	59827.64
652.90	59422.14
653.10	59731.38
653.29	59229.14
653.49	59573.04
653.69	58989.86
653.89	59080.54
654.08	58872.06
654.28	59234.87
654.48	58800.05
654.68	58891.47
654.87	58592.06
655.07	58186.31
655.27	58619.17
655.47	58054.10
655.66	58016.58
655.86	57641.47
656.06	58176.65
656.26	57178.30
656.45	57415.38
656.65	57205.99
656.85	56904.86
657.04	56582.51
657.24	56582.84
657.44	56478.31
657.64	56901.58
657.83	56015.71
658.03	56636.99
658.23	56447.59
658.43	56119.34
658.62	56148.83
658.82	55842.21
659.02	55723.84
659.21	55826.73
659.41	55484.22
659.61	55838.28
659.81	55365.52
660.00	54887.69
660.20	55075.20
660.40	54838.05
660.59	54836.33
660.79	54294.76
660.99	54721.97
661.19	54576.07
661.38	54340.39
661.58	53615.58
661.78	53940.47
661.97	53621.64
662.17	54182.13
662.37	53331.32
662.56	53296.99
662.76	53280.53
662.96	53229.74
663.15	53340.57
663.35	53019.94
663.55	52781.07
663.74	52406.21
663.94	52670.40
664.14	52168.15
664.33	52479.12
664.53	52120.56
664.73	52598.80
664.93	51793.87
665.12	52076.49
665.32	51786.49
665.52	51639.20
665.71	51396.07
665.91	51413.52
666.10	50998.60
666.30	51275.57
666.50	50698.37
666.69	50652.00
666.89	51014.98
667.09	51164.65
667.28	50634.80
667.48	50403.13
667.68	50379.13
667.87	50302.95
668.07	49955.53
668.27	50348.66
668.46	50148.20
668.66	49787.27
668.86	50142.96
669.05	49593.04
669.25	49830.77
669.44	49450.91
669.64	49295.59
669.84	49318.20
670.03	49657.02
670.23	49117.25
670.43	49022.31
670.62	48868.71
670.82	48693.00
671.01	48824.15
671.21	48280.37
671.41	48410.21
671.60	48649.25
671.80	48729.45
672.00	48270.05
672.19	48643.11
672.39	48357.62
672.58	48169.70
672.78	47971.54
672.98	48311.26
673.17	47849.32
673.37	47251.64
673.56	47467.41
673.76	47591.84
673.96	47844.73
674.15	47368.29
674.35	47437.35
674.54	47156.28
674.74	47198.47
674.94	46959.51
675.13	47129.09
675.33	46593.01
675.52	47146.37
675.72	46978.93
675.91	46800.76
676.11	47037.91
676.31	46347.09
676.50	46485.86
676.70	46300.07
676.89	46336.44
677.09	46403.37
677.28	46211.02
677.48	45635.05
677.68	46054.89
677.87	45826.09
678.07	45702.55
678.26	45740.97
678.46	45914.31
678.65	45716.56
678.85	45851.40
679.04	45340.31
679.24	45616.54
679.44	45408.05
679.63	45636.85
679.83	45347.03
680.02	45378.81
680.22	44990.43
680.41	45152.30
680.61	44934.32
680.80	44740.09
681.00	44879.76
681.19	44842.32
681.39	44664.81
681.59	44580.43
681.78	44457.14
681.98	44752.21
682.17	44170.84
682.37	44416.02
682.56	44151.75
682.76	44562.90
682.95	44211.14
683.15	44242.68
683.34	44034.20
683.54	44132.99
683.73	44240.55
683.93	43873.06
684.12	44194.51
684.32	44255.87
684.51	43718.64
684.71	43971.61
684.90	43817.36
685.10	43692.68
685.29	43476.66
685.49	43715.70
685.68	43547.60
685.88	43585.85
686.07	43281.28
686.27	43690.46
686.46	43529.99
686.66	43353.86
686.85	43652.04
687.05	43500.82
687.24	43342.80
687.44	43607.64
687.63	43451.18
687.83	42769.94
688.02	43212.96
688.22	43461.91
688.41	43244.83
688.61	43228.44
688.80	43351.81
689.00	43028.40
689.19	42855.22
689.39	43413.58
689.58	43207.72
689.77	43159.47
689.97	43166.18
690.16	42948.28
690.36	42552.29
690.55	42496.33
690.75	43151.52
690.94	42689.17
691.14	42902.24
691.33	42398.03
691.53	42834.25
691.72	42719.81
691.91	42717.19
692.11	42678.77
692.30	42777.15
692.50	42896.02
692.69	42523.12
692.89	42626.34
693.08	42675.08
693.28	42583.50
693.47	42723.58
693.66	42602.99
693.86	42526.07
694.05	42432.44
694.25	42498.46
694.44	42661.73
694.64	42499.61
694.83	42564.25
695.02	42639.61
695.22	42834.90
695.41	42414.33
695.61	42353.96
695.80	42391.40
695.99	42307.18
696.19	42367.56
696.38	42380.83
696.58	42134.91
696.77	42837.20
696.96	42683.76
697.16	42501.66
697.35	42531.64
697.55	42432.68
697.74	42287.20
697.93	42629.21
698.13	42231.00
698.32	42435.55
698.52	42251.56
698.71	41822.63
698.90	42676.72
699.10	42217.57
699.29	42240.75
699.49	42780.02
699.68	42408.68
699.87	42437.44
700.07	42822.37
700.26	42509.11
700.45	42475.53
700.65	42110.42
700.84	42518.21
701.04	42131.88
701.23	42433.91
701.42	42274.58
701.62	42185.86
701.81	42381.24
702.00	42398.69
702.20	42154.49
702.39	42384.43
702.58	42608.97
702.78	42368.21
702.97	42404.67
703.17	42484.21
703.36	42480.03
703.55	42318.90
703.75	42311.44
703.94	42479.21
704.13	42147.93
704.33	42196.59
704.52	42703.26
704.71	42570.14
704.91	42547.04
705.10	42427.93
705.29	42637.48
705.49	42745.29
705.68	42762.73
705.87	42628.31
706.07	42333.07
706.26	42852.27
706.45	42337.00
706.65	42140.89
706.84	42634.20
707.03	42993.34
707.23	42345.36
707.42	42354.04
707.61	42881.43
707.80	42466.11
708.00	42575.55
708.19	42528.61
708.38	43035.93
708.58	42444.23
708.77	43022.66
708.96	42523.70
709.16	42508.29
709.35	43253.67
709.54	42873.65
709.74	42754.05
709.93	42465.12
710.12	43156.93
710.31	43412.35
710.51	42837.36
710.70	42875.95
710.89	43085.00
711.09	42529.59
711.28	42641.00
711.47	43092.38
711.66	42974.41
711.86	42926.57
712.05	43042.90
712.24	43245.24
712.43	42839.49
712.63	42556.79
712.82	43069.19
713.01	42874.88
713.21	42676.80
713.40	42933.94
713.59	43425.13
713.78	42811.23
713.98	43386.79
714.17	43157.91
714.36	43199.03
714.55	42679.34
714.75	42924.11
714.94	42984.08
715.13	43293.08
715.32	42794.27
715.52	43138.41
715.71	42755.53
715.90	42906.26
716.09	42749.46
716.29	43117.77
716.48	43043.22
716.67	42597.01
716.86	43033.89
717.06	43042.16
717.25	43162.17
717.44	43339.20
717.63	43423.74
717.82	42948.77
718.02	43061.00
718.21	43347.47
718.40	43454.29
718.59	43294.55
718.79	43118.26
718.98	43111.54
719.17	43331.91
719.36	43513.11
719.55	43348.04
719.75	43307.49
719.94	43192.15
720.13	43571.35
720.32	43299.96
720.51	43114.66
720.71	43124.16
720.90	42753.48
721.09	43163.32
721.28	42992.52
721.47	43528.27
721.67	43353.61
721.86	43454.13
722.05	43488.29
722.24	43103.02
722.43	43588.88
722.63	43136.86
722.82	43238.93
723.01	43274.56
723.20	42871.69
723.39	42999.97
723.58	43312.90
723.78	42728.41
723.97	43308.48
724.16	42890.20
724.35	43129.89
724.54	42963.44
724.73	43350.58
724.93	43092.95
725.12	43434.06
725.31	42685.57
725.50	43243.68
725.69	43422.34
725.88	43032.66
726.08	42681.55
726.27	43140.54
726.46	42485.60
726.65	43328.55
726.84	42747.17
727.03	43016.27
727.23	43403.42
727.42	42924.85
727.61	42981.87
727.80	42768.14
727.99	42967.29
728.18	43059.77
728.37	42834.00
728.56	42803.78
728.76	42654.93
728.95	42972.45
729.14	42793.29
729.33	42758.56
729.52	42845.96
729.71	42817.29
729.90	42636.17
730.09	42405.32
730.29	42744.71
730.48	42174.39
730.67	42767.98
730.86	42379.68
731.05	42798.78
731.24	42486.83
731.43	42615.61
731.62	42347.49
731.81	42355.60
732.01	42896.84
732.20	42369.03
732.39	42648.95
732.58	42598.90
732.77	41914.88
732.96	42520.58
733.15	42651.82
733.34	42271.71
733.53	42408.11
733.72	42481.43
733.92	42331.76
734.11	42195.86
734.30	42184.80
734.49	42587.43
734.68	42252.95
734.87	42178.08
735.06	42069.21
735.25	42233.05
735.44	41784.62
735.63	41995.48
735.82	41976.40
736.01	41701.56
736.20	41786.18
736.40	41997.70
736.59	41763.74
736.78	42000.48
736.97	41640.12
737.16	41710.49
737.35	41776.10
737.54	41780.20
737.73	41601.37
737.92	41730.56
738.11	41851.06
738.30	41583.68
738.49	41460.14
738.68	41417.71
738.87	41608.09
739.06	41257.89
739.25	41453.51
739.44	41413.29
739.63	41280.25
739.82	40942.01
740.01	41265.01
740.20	40688.39
740.39	40818.23
740.59	40572.39
740.78	40696.99
740.97	40455.41
741.16	40345.39
741.35	40448.69
741.54	40406.83
741.73	40477.69
741.92	40212.77
742.11	40325.16
742.30	40341.30
742.49	40041.39
742.68	40352.93
742.87	40248.65
743.06	39853.80
743.25	40078.67
743.44	39878.46
743.63	40117.58
743.82	39679.72
744.01	39633.60
744.20	39411.11
744.39	39697.91
744.58	39489.83
744.77	39246.21
744.96	38939.50
745.15	39341.89
745.34	39039.12
745.53	39185.92
745.72	38872.82
745.91	38896.42
746.10	38620.76
746.29	38931.64
746.48	38872.17
746.67	38703.82
746.86	38638.21
747.04	38549.41
747.23	38329.13
747.42	38617.15
747.61	38223.21
747.80	38763.13
747.99	38037.82
748.18	38575.62
748.37	38286.37
748.56	37879.39
748.75	38020.38
748.94	37997.11
749.13	37890.04
749.32	37543.04
749.51	37724.24
749.70	37660.83
749.89	37505.19
750.08	37571.87
750.27	37021.29
750.46	37283.19
750.65	37552.87
750.84	37005.65
751.02	37306.13
751.21	37087.89
751.40	37179.32
751.59	37112.39
751.78	36897.84
751.97	36885.56
752.16	36612.11
752.35	36866.22
752.54	36419.93
752.73	36711.40
752.92	36349.81
753.11	36262.56
753.30	36404.69
753.49	36411.49
753.67	36191.62
753.86	35890.90
754.05	36070.63
754.24	35809.63
754.43	35738.77
754.62	35795.38
754.81	35438.22
755.00	35571.01
755.19	35473.77
755.38	34990.28
755.56	35263.73
755.75	35458.78
755.94	34982.91
756.13	34978.32
756.32	35093.75
756.51	34852.17
756.70	34874.29
756.89	34769.10
757.08	34642.78
757.26	34638.11
757.45	34530.06
757.64	34303.23
757.83	34604.94
758.02	34337.06
758.21	34187.23
758.40	34215.91
758.59	34216.07
758.77	33946.80
758.96	34014.47
759.15	33971.05
759.34	33610.28
759.53	33671.72
759.72	33662.46
759.91	33292.35
760.09	33440.87
760.28	33448.57
760.47	32949.20
760.66	33325.86
760.85	32741.61
761.04	33165.54
761.23	32915.28
761.41	32797.40
761.60	32895.62
761.79	32598.83
761.98	32368.15
762.17	32708.19
762.36	32351.03
762.54	32604.24
762.73	32335.87
762.92	32206.27
763.11	32454.49
763.30	32465.14
763.49	32225.20
763.67	32048.25
763.86	32058.98
764.05	32125.50
764.24	31891.62
764.43	32179.57
764.61	31639.89
764.80	31645.21
764.99	31887.53
765.18	31377.91
765.37	31478.43
765.55	31430.18
765.74	31257.16
765.93	30957.34
766.12	31113.07
766.31	31005.59
766.49	31018.62
766.68	30956.11
766.87	30834.63
767.06	30667.51
767.25	30735.10
767.43	30614.51
767.62	30479.26
767.81	30622.79
768.00	30392.68
768.19	30231.87
768.37	30355.48
768.56	30250.96
768.75	30263.57
768.94	30250.79
769.12	29950.56
769.31	29936.06
769.50	29863.81
769.69	29969.57
769.88	29504.35
770.06	29929.75
770.25	29442.66
770.44	29346.65
770.63	29565.62
770.81	29463.88
771.00	29297.83
771.19	29362.63
771.38	29165.70
771.56	29270.14
771.75	28686.80
771.94	29009.81
772.13	28969.26
772.31	28796.57
772.50	29152.18
772.69	28863.09
772.88	29120.23
773.06	28666.32
773.25	28795.18
773.44	28742.67
773.62	28588.50
773.81	28604.55
774.00	28504.12
774.19	28549.09
774.37	28410.41
774.56	28590.54
774.75	28158.83
774.94	28399.18
775.12	28192.50
775.31	28277.37
775.50	28144.33
775.68	27983.61
775.87	27925.61
776.06	27759.40
776.25	27977.30
776.43	27642.66
776.62	27884.81
776.81	27541.58
776.99	27709.26
777.18	27546.90
777.37	27230.86
777.55	27379.46
777.74	27366.11
777.93	27275.26
778.12	27211.61
778.30	27026.22
778.49	27069.07
778.68	27154.35
778.86	26995.67
779.05	27120.92
779.24	26993.29
779.42	26813.89
779.61	26742.95
779.80	26772.19
779.98	26822.98
780.17	26918.58
780.36	26556.17
780.54	26769.08
780.73	26219.98
780.92	26677.58
781.10	26449.19
781.29	26288.14
781.48	26124.63
781.66	26177.96
781.85	26211.79
782.04	26074.25
782.22	26123.64
782.41	25971.44
782.60	26019.28
782.78	25994.21
782.97	26107.26
783.16	25694.55
783.34	25777.86
783.53	25823.66
783.71	25645.48
783.90	25664.24
784.09	25644.58
784.27	25575.85
784.46	25502.86
784.65	25536.04
784.83	25384.33
785.02	25307.00
785.20	25596.58
785.39	25121.37
785.58	25494.26
785.76	25368.35
785.95	25311.09
786.14	25384.08
786.32	25373.76
786.51	25201.98
786.69	25400.96
786.88	25206.07
787.07	25177.56
787.25	25237.20
787.44	25211.89
787.62	25108.59
787.81	25219.59
788.00	25206.48
788.18	24972.28
788.37	24964.08
788.55	25273.08
788.74	24924.19
788.93	25100.07
789.11	25169.95
789.30	25055.75
789.48	24907.40
789.67	25037.48
789.86	24972.77
790.04	25017.66
790.23	24963.67
790.41	24873.65
790.60	25061.57
790.78	25012.91
790.97	24739.71
791.16	24937.71
791.34	25180.92
791.53	24766.25
791.71	25117.11
791.90	24759.70
792.08	24932.14
792.27	24918.21
792.46	24769.04
792.64	24821.63
792.83	24725.29
793.01	24755.19
793.20	24695.80
793.38	24612.32
793.57	24639.19
793.75	24708.09
793.94	24776.24
794.12	24964.90
794.31	24688.75
794.50	24826.62
794.68	24899.20
794.87	24731.68
795.05	24978.58
795.24	24724.88
795.42	24629.61
795.61	24988.82
795.79	25000.13
795.98	24601.35
796.16	24886.02
796.35	24913.29
796.53	24690.15
796.72	24891.42
796.90	24889.95
797.09	24853.08
797.27	24768.30
797.46	24697.93
797.64	24899.04
797.83	24812.21
798.01	24861.93
798.20	24917.39
798.38	24743.23
798.57	24922.71
798.75	24821.38
798.94	24459.79
799.12	25081.64
799.31	24734.06
799.49	24775.34
799.68	24680.40
799.86	24671.14
800.05	24645.34
800.23	24632.07
800.42	24510.75
800.60	24821.55
800.79	24471.42
800.97	24622.24
801.16	24806.88
801.34	24449.39
801.53	24438.66
801.71	24654.51
801.90	24447.50
802.08	24711.61
802.27	24481.42
802.45	24443.74
802.64	24589.72
802.82	24612.82
803.00	24346.91
803.19	24462.58
803.37	24695.06
803.56	24519.76
803.74	24513.69
803.93	24563.34
804.11	24446.77
804.30	24284.49
804.48	24446.36
804.67	24414.82
804.85	24297.02
805.03	24559.98
805.22	24254.09
805.40	24220.51
805.59	24339.78
805.77	24324.46
805.96	24252.29
806.14	24201.91
806.32	24284.24
806.51	24491.41
806.69	24255.98
806.88	24206.83
807.06	24140.31
807.25	24188.31
807.43	24109.51
807.61	24154.07
807.80	24010.88
807.98	24170.95
808.17	23992.12
808.35	23978.93
808.53	24319.06
808.72	24115.57
808.90	24163.66
809.09	24203.96
809.27	24241.07
809.45	23992.04
809.64	24164.72
809.82	23984.75
810.01	23994.00
810.19	24059.13
810.37	23913.97
810.56	23824.35
810.74	23986.96
810.93	23732.44
811.11	23773.15
811.29	23688.12
811.48	23765.78
811.66	23786.09
811.84	23682.55
812.03	23661.74
812.21	23560.73
812.40	23738.58
812.58	23767.74
812.76	23537.47
812.95	23845.81
813.13	23484.22
813.31	23632.58
813.50	23738.99
813.68	23626.43
813.86	23835.33
814.05	23905.86
814.23	23600.05
814.42	23721.87
814.60	23557.29
814.78	23716.71
814.97	23669.28
815.15	23675.09
815.33	23721.54
815.52	23495.69
815.70	23577.04
815.88	23603.90
816.07	23407.30
816.25	23532.39
816.43	23557.05
816.62	23327.35
816.80	23441.05
816.98	23383.13
817.17	23381.33
817.35	23421.96
817.53	23449.57
817.72	23535.26
817.90	23226.83
818.08	23270.09
818.26	23440.89
818.45	23205.53
818.63	23348.56
818.81	23337.34
819.00	23069.30
819.18	23316.21
819.36	23250.92
819.55	23279.26
819.73	23165.23
819.91	23301.62
820.09	23269.92
820.28	23360.03
820.46	23185.63
820.64	23549.67
820.83	23217.17
821.01	23239.78
821.19	23210.78
821.38	23248.79
821.56	23127.22
821.74	23239.61
821.92	23060.13
822.11	23361.18
822.29	23004.26
822.47	23083.56
822.65	23119.44
822.84	23225.11
823.02	22993.20
823.20	23321.20
823.39	22978.46
823.57	23121.32
823.75	23161.95
823.93	23012.04
824.12	23173.34
824.30	23051.61
824.48	23017.20
824.66	23200.13
824.85	22869.09
825.03	23157.04
825.21	23205.21
825.39	23053.57
825.58	23105.18
825.76	23018.02
825.94	23004.34
826.12	22937.74
826.31	22908.99
826.49	22968.54
826.67	23033.34
826.85	22909.89
827.03	22966.66
827.22	23032.03
827.40	22925.04
827.58	22918.57
827.76	22994.10
827.95	22836.98
828.13	22931.43
828.31	22878.51
828.49	22942.41
828.67	22831.66
828.86	22808.31
829.04	22819.70
829.22	22726.06
829.40	22692.15
829.58	22687.81
829.77	22703.04
829.95	22803.31
830.13	22749.00
830.31	22729.91
830.49	22804.46
830.68	22768.25
830.86	22655.70
831.04	22649.14
831.22	22691.66
831.40	22641.61
831.59	22805.28
831.77	22571.16
831.95	22739.42
832.13	22523.31
832.31	22642.75
832.50	22630.46
832.68	22509.80
832.86	22596.06
833.04	22757.03
833.22	22385.53
833.40	22846.32
833.59	22527.66
833.77	22744.82
833.95	22176.80
834.13	22815.60
834.31	22545.68
834.49	22585.00
834.67	22582.79
834.86	22692.80
835.04	22546.50
835.22	22645.87
835.40	22525.03
835.58	22494.89
835.76	22493.66
835.95	22545.51
836.13	22501.28
836.31	22383.48
836.49	22600.89
836.67	22608.35
836.85	22511.60
837.03	22429.11
837.21	22480.88
837.40	22318.35
837.58	22168.85
837.76	22327.61
837.94	22268.71
838.12	22492.02
838.30	22297.55
838.48	22324.25
838.66	22266.83
838.85	22320.24
839.03	22287.31
839.21	22294.02
839.39	22231.27
839.57	22347.93
839.75	22210.79
839.93	22218.99
840.11	22225.70
840.29	22178.27
840.47	22227.51
840.66	22176.63
840.84	22106.27
841.02	21965.12
841.20	22045.81
841.38	22063.75
841.56	22024.43
841.74	22316.88
841.92	22019.76
842.10	22072.93
842.28	22224.80
842.46	22081.04
842.65	22049.33
842.83	22206.29
843.01	22357.67
843.19	22061.70
843.37	22231.60
843.55	22112.82
843.73	22213.91
843.91	22206.53
844.09	22161.97
844.27	22320.98
844.45	22035.49
844.63	22087.18
844.81	22071.94
844.99	22119.78
845.17	22017.88
845.35	22189.91
845.54	21992.40
845.72	22029.84
845.90	21971.18
846.08	22034.83
846.26	21799.89
846.44	22048.92
846.62	21779.25
846.80	21851.83
846.98	21826.84
847.16	21795.38
847.34	21801.12
847.52	21782.93
847.70	21718.79
847.88	21846.09
848.06	21749.43
848.24	21833.89
848.42	21866.74
848.60	21690.53
848.78	21859.53
848.96	21798.01
849.14	21756.31
849.32	21858.87
849.50	21633.84
849.68	21828.56
849.86	21731.08
850.04	21641.13
850.22	21686.10
850.40	21502.77
850.58	21709.45
850.76	22046.63
850.94	21359.09
851.12	21768.84
851.30	21568.96
851.48	21719.45
851.66	21545.86
851.84	21573.71
852.02	21528.82
852.20	21641.38
852.38	21436.17
852.56	21539.14
852.74	21547.01
852.92	21429.04
853.10	21366.95
853.28	21471.89
853.46	21133.73
853.64	21382.43
853.82	21198.61
854.00	21238.34
854.18	21134.63
854.36	21057.62
854.54	21212.53
854.72	21062.87
854.90	21048.20
855.07	21134.14
855.25	21184.76
855.43	21202.29
855.61	21178.78
855.79	21096.70
855.97	21178.86
856.15	21213.68
856.33	21080.40
856.51	21245.30
856.69	20967.76
856.87	21184.43
857.05	21087.36
857.23	21173.95
857.41	21013.22
857.59	21047.96
857.77	21040.83
857.94	21032.88
858.12	21103.50
858.30	20933.11
858.48	20955.23
858.66	20824.89
858.84	20962.11
859.02	20744.53
859.20	20656.14
859.38	21016.99
859.56	20906.57
859.74	20829.07
859.92	20887.15
860.09	20730.03
860.27	20850.04
860.45	20636.89
860.63	20709.72
860.81	20867.82
860.99	20646.64
861.17	20503.53
861.35	20179.54
861.53	20087.05
861.70	20041.67
861.88	20519.50
862.06	20444.13
862.24	20075.58
862.42	20129.89
862.60	20393.43
862.78	20385.48
862.96	20440.69
863.14	20254.41
863.31	20322.08
863.49	20273.25
863.67	20185.19
863.85	20159.47
864.03	20264.81
864.21	20252.77
864.39	20306.27
864.56	20093.69
864.74	20234.67
864.92	20115.72
865.10	20029.22
865.28	20113.51
865.46	20312.00
865.64	19864.48
865.81	20099.58
865.99	19851.78
866.17	20113.51
866.35	20000.14
866.53	19984.82
866.71	19947.13
866.88	19961.80
867.06	19783.95
867.24	19833.51
867.42	19692.61
867.60	19803.61
867.78	19658.45
867.95	19844.08
868.13	19577.68
868.31	19823.35
868.49	19708.26
868.67	19624.05
868.84	19530.58
869.02	19579.97
869.20	19273.27
869.38	19549.58
869.56	19359.12
869.73	19370.51
869.91	19482.57
870.09	19406.55
870.27	19298.09
870.45	19361.17
870.62	19206.75
870.80	19411.96
870.98	19284.00
871.16	19279.82
871.34	19189.47
871.51	19214.04
871.69	19040.13
871.87	19083.22
872.05	19024.97
872.23	19010.31
872.40	18835.09
872.58	18909.63
872.76	18740.39
872.94	18744.32
873.11	18773.65
873.29	18657.65
873.47	18767.09
873.65	18704.10
873.83	18742.35
874.00	18732.61
874.18	18822.80
874.36	18723.51
874.54	18836.15
874.71	18699.76
874.89	18532.48
875.07	18626.03
875.25	18559.51
875.42	18588.18
875.60	18490.37
875.78	18721.47
875.96	18420.25
876.13	18579.66
876.31	18330.71
876.49	18354.55
876.66	18247.32
876.84	18539.85
877.02	18282.95
877.20	18277.06
877.37	18319.82
877.55	18230.94
877.73	18173.67
877.91	18111.99
878.08	18281.73
878.26	18192.02
878.44	18228.07
878.61	18192.68
878.79	18100.28
878.97	18125.26
879.15	18260.84
879.32	18195.96
879.50	18144.68
879.68	18244.53
879.85	18027.20
880.03	18211.36
880.21	18030.48
880.38	18144.02
880.56	17980.92
880.74	18221.27
880.92	17953.64
881.09	18105.60
881.27	17992.80
881.45	18049.73
881.62	17965.60
881.80	17916.86
881.98	17818.15
882.15	17961.34
882.33	17844.28
882.51	17824.62
882.68	17674.13
882.86	17868.53
883.04	17666.27
883.21	17756.71
883.39	17887.20
883.57	17729.10
883.74	17761.46
883.92	17766.37
884.10	17799.88
884.27	17737.05
884.45	17663.57
884.63	17862.96
884.80	17806.19
884.98	17737.54
885.16	17750.73
885.33	17752.20
885.51	17734.84
885.69	17704.85
885.86	17604.75
886.04	17749.01
886.21	17518.32
886.39	17741.55
886.57	17413.80
886.74	17607.94
886.92	17604.91
887.10	17528.65
887.27	17525.21
887.45	17483.02
887.62	17508.17
887.80	17477.45
887.98	17712.47
888.15	17625.15
888.33	17564.61
888.51	17749.17
888.68	17599.59
888.86	17640.47
889.03	17547.00
889.21	17648.17
889.39	17675.36
889.56	17673.97
889.74	17726.23
889.91	17681.75
890.09	17626.21
890.27	17684.78
890.44	17654.15
890.62	17762.11
890.79	17696.91
890.97	17707.07
891.14	17603.68
891.32	17658.41
891.50	17540.77
891.67	17656.19
891.85	17587.55
892.02	17529.47
892.20	17606.47
892.38	17504.07
892.55	17389.88
892.73	17513.41
892.90	17413.96
893.08	17448.78
893.25	17376.93
893.43	17586.97
893.60	17317.21
893.78	17502.27
893.96	17346.21
894.13	17444.11
894.31	17569.36
894.48	17403.56
894.66	17518.49
894.83	17494.73
895.01	17528.97
895.18	17487.52
895.36	17430.18
895.53	17529.88
895.71	17429.28
895.89	17477.20
896.06	17325.24
896.24	17391.76
896.41	17320.74
896.59	17367.76
896.76	17139.20
896.94	17288.38
897.11	17249.80
897.29	17299.93
897.46	17132.65
897.64	17161.81
897.81	17102.26
897.99	16942.68
898.16	17193.84
898.34	17126.10
898.51	17056.14
898.69	17004.61
898.86	17040.16
899.04	17046.47
899.21	16930.48
899.39	17043.44
899.56	17010.84
899.74	17133.47
899.91	16914.26
900.09	16901.15
900.26	16911.80
900.44	16697.58
900.61	16780.15
900.79	16903.20
900.96	16734.03
901.14	16728.30
901.31	16676.77
901.49	16631.64
901.66	16715.11
901.84	16661.54
902.01	16516.54
902.19	16601.24
902.36	16460.02
902.54	16504.50
902.71	16448.06
902.88	16527.11
903.06	16245.72
903.23	16573.97
903.41	16344.35
903.58	16324.28
903.76	16213.11
903.93	16379.41
904.11	16388.50
904.28	16238.34
904.45	16230.81
904.63	16197.55
904.80	16101.54
904.98	16168.06
905.15	15999.06
905.33	16088.84
905.50	16003.73
905.68	15989.88
905.85	15936.06
906.02	15915.99
906.20	15984.48
906.37	15793.03
906.55	15698.58
906.72	15821.05
906.90	15639.52
907.07	15567.10
907.24	15670.81
907.42	15521.23
907.59	15543.35
907.77	15451.84
907.94	15440.70
908.11	15404.33
908.29	15399.09
908.46	15348.54
908.64	15267.53
908.81	15251.80
908.98	15164.55
909.16	15231.40
909.33	15120.89
909.51	15060.27
909.68	14980.24
909.85	15028.90
910.03	14977.04
910.20	14818.94
910.37	14803.86
910.55	14754.14
910.72	14663.46
910.90	14625.53
911.07	14553.85
911.24	14467.02
911.42	14648.06
911.59	14386.98
911.76	14415.00
911.94	14303.91
912.11	14322.51
912.29	14354.21
912.46	14199.63
912.63	14273.20
912.81	14096.91
912.98	14199.22
913.15	14007.12
913.33	14145.16
913.50	14104.44
913.67	13996.56
913.85	13981.89
914.02	14020.97
914.19	13968.87
914.37	13914.96
914.54	13914.39
914.71	13886.78
914.89	13828.13
915.06	13826.25
915.23	13724.75
915.41	13706.73
915.58	13622.68
915.75	13575.66
915.93	13529.29
916.10	13508.24
916.27	13442.29
916.45	13408.79
916.62	13313.68
916.79	13428.04
916.97	13276.41
917.14	13264.53
917.31	13169.18
917.49	13190.97
917.66	13189.82
917.83	13104.30
918.00	13089.96
918.18	12994.20
918.35	12913.92
918.52	13012.79
918.70	12863.87
918.87	12826.67
919.04	12808.49
919.21	12795.71
919.39	12651.12
919.56	12697.41
919.73	12584.03
919.91	12663.25
920.08	12557.82
920.25	12517.59
920.42	12614.75
920.60	12517.35
920.77	12419.05
920.94	12480.81
921.11	12313.86
921.29	12360.47
921.46	12176.57
921.63	12323.69
921.81	12217.44
921.98	12221.62
922.15	12148.22
922.32	12220.97
922.50	12098.50
922.67	12095.71
922.84	12031.73
923.01	11922.45
923.19	11913.20
923.36	11914.10
923.53	11736.34
923.70	11806.13
923.87	11754.52
924.05	11768.04
924.22	11633.61
924.39	11688.99
924.56	11578.97
924.74	11613.70
924.91	11582.66
925.08	11489.19
925.25	11510.90
925.43	11483.04
925.60	11394.90
925.77	11510.08
925.94	11388.67
926.11	11357.46
926.29	11253.92
926.46	11330.76
926.63	11264.81
926.80	11231.96
926.97	11148.00
927.15	11202.39
927.32	11060.34
927.49	11019.30
927.66	11011.52
927.83	11027.33
928.01	10938.12
928.18	10885.04
928.35	10782.97
928.52	10863.33
928.69	10742.01
928.87	10741.35
929.04	10736.03
929.21	10721.85
929.38	10664.43
929.55	10697.61
929.72	10571.45
929.90	10583.49
930.07	10578.09
930.24	10491.09
930.41	10464.38
930.58	10400.73
930.75	10430.14
930.93	10372.39
931.10	10315.62
931.27	10252.70
931.44	10244.27
931.61	10184.88
931.78	10227.15
931.95	10216.91
932.13	10177.18
932.30	10210.27
932.47	10074.20
932.64	10083.87
932.81	10079.28
932.98	10058.15
933.15	10062.82
933.33	9938.63
933.50	10016.37
933.67	9871.54
933.84	9912.74
934.01	9901.11
934.18	9842.21
934.35	9784.29
934.52	9767.01
934.70	9825.74
934.87	9718.76
935.04	9688.86
935.21	9665.76
935.38	9658.06
935.55	9602.68
935.72	9655.60
935.89	9544.35
936.06	9583.35
936.24	9480.95
936.41	9563.28
936.58	9454.82
936.75	9482.75
936.92	9466.94
937.09	9452.36
937.26	9418.03
937.43	9396.98
937.60	9368.39
937.77	9323.91
937.94	9316.29
938.12	9323.34
938.29	9235.93
938.46	9305.89
938.63	9150.49
938.80	9215.70
938.97	9116.00
939.14	9167.12
939.31	9106.25
939.48	9103.79
939.65	9049.73
939.82	9018.27
939.99	8983.70
940.16	8970.02
940.33	8925.95
940.50	8926.36
940.67	8918.33
940.85	8893.59
941.02	8878.35
941.19	8864.43
941.36	8825.19
941.53	8850.75
941.70	8812.08
941.87	8731.88
942.04	8769.24
942.21	8739.17
942.38	8711.08
942.55	8639.40
942.72	8658.48
942.89	8632.52
943.06	8613.76
943.23	8572.55
943.40	8519.80
943.57	8530.04
943.74	8494.48
943.91	8484.90
944.08	8462.78
944.25	8519.22
944.42	8414.45
944.59	8412.15
944.76	8423.87
944.93	8395.20
945.10	8370.21
945.27	8351.70
945.44	8249.46
945.61	8275.68
945.78	8264.86
945.95	8241.52
946.12	8164.51
946.29	8214.24
946.46	8186.55
946.63	8135.92
946.80	8125.60
946.97	8090.38
947.14	8023.78
947.31	8089.31
947.48	8017.47
947.65	8025.25
947.82	8034.51
947.99	8061.30
948.16	7953.49
948.33	8006.41
948.50	7913.52
948.67	7937.03
948.84	7905.00
949.01	7886.24
949.18	7894.43
949.35	7874.19
949.52	7783.92
949.68	7822.99
949.85	7770.57
950.02	7755.74
950.19	7758.61
950.36	7732.07
950.53	7724.45
950.70	7737.72
950.87	7674.39
951.04	7716.01
951.21	7626.31
951.38	7608.45
951.55	7606.40
951.72	7598.87
951.89	7586.17
952.06	7580.35
952.23	7543.08
952.39	7528.91
952.56	7466.57
952.73	7504.49
952.90	7440.35
953.07	7508.84
953.24	7411.27
953.41	7412.66
953.58	7344.59
953.75	7421.35
953.92	7339.43
954.09	7342.38
954.25	7271.93
954.42	7282.33
954.59	7254.07
954.76	7232.69
954.93	7227.20
955.10	7237.77
955.27	7196.89
955.44	7213.36
955.61	7169.53
955.77	7205.74
955.94	7133.89
956.11	7179.44
956.28	7157.00
956.45	7134.71
956.62	7139.46
956.79	7127.91
956.96	7126.93
957.12	7100.39
957.29	7086.05
957.46	7055.42
957.63	7017.49
957.80	7014.62
957.97	6944.09
958.14	7036.25
958.30	6931.47
958.47	6931.06
958.64	6913.53
958.81	6961.05
958.98	6901.41
959.15	6879.78
959.32	6905.01
959.48	6857.75
959.65	6800.24
959.82	6847.51
959.99	6800.32
960.16	6820.72
960.33	6807.12
960.49	6777.71
960.66	6727.09
960.83	6747.89
961.00	6740.52
961.17	6733.64
961.33	6694.89
961.50	6701.28
961.67	6663.03
961.84	6675.31
962.01	6631.40
962.18	6640.74
962.34	6619.36
962.51	6624.85
962.68	6554.16
962.85	6624.44
963.02	6516.47
963.18	6556.37
963.35	6507.71
963.52	6541.38
963.69	6502.30
963.86	6519.26
964.02	6476.91
964.19	6497.96
964.36	6428.08
964.53	6423.99
964.69	6390.97
964.86	6445.20
965.03	6351.90
965.20	6419.73
965.37	6309.55
965.53	6335.51
965.70	6299.47
965.87	6324.46
966.04	6302.58
966.20	6269.73
966.37	6254.41
966.54	6236.31
966.71	6282.92
966.87	6206.90
967.04	6255.73
967.21	6190.76
967.38	6207.80
967.54	6210.83
967.71	6174.63
967.88	6169.71
968.05	6146.28
968.21	6128.67
968.38	6096.56
968.55	6089.27
968.72	6051.34
968.88	6040.61
969.05	6085.25
969.22	6059.37
969.39	6057.56
969.55	6049.86
969.72	6008.41
969.89	6022.26
970.05	6019.64
970.22	6062.89
970.39	5993.42
970.56	6005.46
970.72	5999.16
970.89	5984.08
971.06	5959.67
971.22	5910.11
971.39	5945.91
971.56	5966.06
971.73	5882.09
971.89	5931.98
972.06	5871.85
972.23	5884.72
972.39	5850.31
972.56	5862.68
972.73	5786.82
972.89	5849.16
973.06	5851.05
973.23	5827.86
973.39	5791.33
973.56	5792.23
973.73	5773.72
973.89	5798.29
974.06	5748.57
974.23	5749.14
974.39	5737.26
974.56	5717.11
974.73	5702.45
974.89	5673.94
975.06	5701.54
975.23	5721.86
975.39	5643.22
975.56	5688.44
975.73	5657.64
975.89	5632.41
976.06	5609.71
976.23	5592.10
976.39	5592.35
976.56	5588.17
976.73	5602.10
976.89	5589.07
977.06	5533.78
977.23	5546.55
977.39	5532.87
977.56	5553.52
977.72	5516.00
977.89	5536.23
978.06	5502.24
978.22	5496.09
978.39	5487.41
978.56	5492.57
978.72	5441.70
978.89	5435.23
979.05	5423.76
979.22	5424.50
979.39	5399.59
979.55	5415.48
979.72	5382.31
979.88	5403.36
980.05	5360.19
980.22	5382.64
980.38	5367.48
980.55	5336.68
980.71	5305.22
980.88	5342.90
981.05	5322.59
981.21	5308.42
981.38	5284.17
981.54	5301.21
981.71	5275.24
981.88	5285.15
982.04	5263.61
982.21	5279.34
982.37	5233.13
982.54	5270.57
982.70	5226.09
982.87	5225.92
983.04	5200.28
983.20	5223.88
983.37	5169.81
983.53	5206.59
983.70	5189.31
983.86	5179.23
984.03	5158.42
984.20	5171.12
984.36	5161.78
984.53	5151.05
984.69	5124.02
984.86	5094.77
985.02	5111.65
985.19	5115.58
985.35	5075.28
985.52	5076.83
985.68	5079.54
985.85	5070.93
986.02	5053.16
986.18	5059.38
986.35	5040.30
986.51	5073.56
986.68	5033.42
986.84	5022.68
987.01	4991.06
987.17	5035.96
987.34	5030.96
987.50	5011.05
987.67	4972.96
987.83	4985.90
988.00	4976.97
988.16	4953.95
988.33	4965.34
988.49	4954.12
988.66	4924.55
988.82	4958.13
988.99	4929.71
989.15	4919.79
989.32	4884.98
989.48	4890.30
989.65	4865.89
989.81	4890.22
989.98	4878.75
990.14	4858.85
990.31	4844.10
990.47	4853.77
990.64	4840.50
990.80	4822.80
990.97	4815.76
991.13	4833.04
991.30	4794.46
991.46	4798.15
991.63	4771.60
991.79	4787.33
991.95	4720.40
992.12	4772.83
992.28	4747.60
992.45	4743.42
992.61	4732.12
992.78	4730.32
992.94	4706.81
993.11	4749.40
993.27	4719.34
993.44	4707.54
993.60	4695.99
993.76	4688.37
993.93	4688.46
994.09	4692.72
994.26	4667.73
994.42	4666.58
994.59	4651.51
994.75	4678.63
994.91	4640.86
995.08	4629.80
995.24	4644.96
995.41	4638.81
995.57	4626.69
995.74	4597.20
995.90	4617.35
996.06	4586.88
996.23	4594.74
996.39	4577.05
996.56	4552.31
996.72	4579.50
996.88	4566.15
997.05	4567.87
997.21	4561.89
997.38	4586.79
997.54	4533.14
997.70	4549.93
997.87	4548.78
998.03	4530.19
998.20	4493.16
998.36	4514.30
998.52	4490.79
998.69	4542.15
998.85	4477.60
999.02	4485.79
999.18	4457.20
999.34	4480.55
999.51	4468.83
999.67	4488.16
999.83	4453.43
1000.00	4455.89
1000.16	4422.63
1000.33	4426.23
1000.49	4426.32
1000.65	4425.41
1000.82	4428.12
1000.98	4388.39
1001.14	4367.09
1001.31	4404.94
1001.47	4394.12
1001.63	4400.51
1001.80	4363.07
1001.96	4351.77
1002.12	4356.68
1002.29	4357.75
1002.45	4331.86
1002.61	4327.03
1002.78	4314.09
1002.94	4315.97
1003.10	4312.78
1003.27	4319.08
1003.43	4282.14
1003.59	4299.26
1003.76	4302.54
1003.92	4299.92
1004.08	4300.98
1004.25	4296.97
1004.41	4282.14
1004.57	4282.96
1004.74	4242.90
1004.90	4304.09
1005.06	4257.48
1005.23	4269.44
1005.39	4251.99
1005.55	4247.57
1005.71	4253.63
1005.88	4245.60
1006.04	4257.40
1006.20	4238.80
1006.37	4201.53
1006.53	4207.18
1006.69	4191.78
1006.85	4200.71
1007.02	4167.78
1007.18	4200.22
1007.34	4176.87
1007.51	4196.78
1007.67	4159.75
1007.83	4161.80
1007.99	4170.57
1008.16	4146.07
1008.32	4121.66
1008.48	4164.75
1008.64	4135.83
1008.81	4140.50
1008.97	4135.59
1009.13	4132.72
1009.29	4106.51
1009.46	4107.24
1009.62	4103.80
1009.78	4087.17
1009.95	4098.40
1010.11	4077.51
1010.27	4077.75
1010.43	4082.34
1010.59	4090.12
1010.76	4088.81
1010.92	4058.01
1011.08	4051.37
1011.24	4061.70
1011.41	4071.85
1011.57	4037.45
1011.73	4040.97
1011.89	4021.39
1012.06	4045.72
1012.22	3998.86
1012.38	4016.97
1012.54	4015.82
1012.70	4002.39
1012.87	3980.19
1013.03	4020.41
1013.19	3992.47
1013.35	4006.32
1013.51	3968.64
1013.68	4004.93
1013.84	3957.25
1014.00	3976.34
1014.16	3947.50
1014.32	3951.19
1014.49	3950.70
1014.65	3962.49
1014.81	3942.01
1014.97	3946.11
1015.13	3948.32
1015.30	3944.14
1015.46	3921.29
1015.62	3947.75
1015.78	3916.37
1015.94	3915.72
1016.10	3904.66
1016.27	3907.28
1016.43	3871.89
1016.59	3919.81
1016.75	3895.97
1016.91	3887.95
1017.07	3863.62
1017.24	3876.23
1017.40	3859.77
1017.56	3887.70
1017.72	3868.61
1017.88	3856.24
1018.04	3858.29
1018.21	3851.74
1018.37	3836.91
1018.53	3856.73
1018.69	3846.17
1018.85	3840.02
1019.01	3818.15
1019.17	3836.99
1019.34	3803.90
1019.50	3828.88
1019.66	3807.42
1019.82	3810.29
1019.98	3792.76
1020.14	3808.98
1020.30	3807.91
1020.46	3795.62
1020.63	3795.13
1020.79	3777.52
1020.95	3791.53
1021.11	3801.85
1021.27	3757.37
1021.43	3774.24
1021.59	3780.63
1021.75	3773.51
1021.91	3725.01
1022.07	3748.68
1022.24	3744.83
1022.40	3743.52
1022.56	3722.63
1022.72	3738.28
1022.88	3721.32
1023.04	3741.15
1023.20	3716.08
1023.36	3733.37
1023.52	3725.26
1023.68	3730.17
1023.84	3712.80
1024.01	3715.10
1024.17	3677.09
1024.33	3693.47
1024.49	3689.62
1024.65	3669.14
1024.81	3696.34
1024.97	3680.86
1025.13	3678.73
1025.29	3701.17
1025.45	3661.03
1025.61	3686.02
1025.77	3649.97
1025.93	3675.86
1026.09	3652.27
1026.25	3656.69
1026.41	3663.49
1026.57	3665.54
1026.73	3661.03
1026.90	3658.74
1027.06	3642.76
1027.22	3658.82
1027.38	3645.14
1027.54	3661.11
1027.70	3630.31
1027.86	3625.07
1028.02	3622.53
1028.18	3654.48
1028.34	3635.47
1028.50	3645.96
1028.66	3608.11
1028.82	3626.46
1028.98	3627.69
1029.14	3601.72
1029.30	3617.94
1029.46	3615.98
1029.62	3615.73
1029.78	3574.93
1029.94	3602.21
1030.10	3585.09
1030.26	3594.35
1030.42	3600.66
1030.58	3583.62
1030.74	3582.23
1030.90	3547.57
1031.06	3565.10
1031.22	3566.25
1031.38	3580.26
1031.54	3560.76
1031.70	3582.23
1031.86	3546.51
1032.02	3568.38
1032.18	3551.34
1032.34	3550.36
1032.50	3545.69
1032.66	3569.36
1032.82	3543.31
1032.98	3550.11
1033.14	3542.58
1033.30	3547.82
1033.45	3514.81
1033.61	3545.77
1033.77	3541.59
1033.93	3550.28
1034.09	3527.75
1034.25	3533.97
1034.41	3504.98
1034.57	3521.03
1034.73	3516.53
1034.89	3521.28
1035.05	3513.41
1035.21	3498.83
1035.37	3487.28
1035.53	3503.91
1035.69	3495.06
1035.85	3527.18
1036.01	3493.10
1036.16	3508.09
1036.32	3480.89
1036.48	3501.37
1036.64	3488.51
1036.80	3508.50
1036.96	3483.10
1037.12	3468.03
1037.28	3487.28
1037.44	3464.92
1037.60	3454.68
1037.76	3467.70
1037.91	3466.06
1038.07	3476.47
1038.23	3452.63
1038.39	3473.76
1038.55	3460.33
1038.71	3474.99
1038.87	3448.21
1039.03	3466.31
1039.19	3455.50
1039.35	3449.52
1039.50	3463.03
1039.66	3458.69
1039.82	3444.93
1039.98	3462.95
1040.14	3436.41
1040.30	3434.94
1040.46	3430.02
1040.62	3407.98
1040.77	3412.00
1040.93	3461.56
1041.09	3427.23
1041.25	3429.04
1041.41	3426.33
1041.57	3419.12
1041.73	3419.12
1041.88	3419.12

