SpectraSuite Data File
++++++++++++++++++++++++++++++++++++
Date: Tue Sep 20 12:00:13 EDT 2022
User: Laboratoire
Dark Spectrum Present: No
Reference Spectrum Present: No
Number of Sampled Component Spectra: 1
Spectrometers: FLMT00174
Integration Time (usec): 15000 (FLMT00174)
Spectra Averaged: 25 (FLMT00174)
Boxcar Smoothing: 0 (FLMT00174)
Correct for Electrical Dark: No (FLMT00174)
Strobe/Lamp Enabled: No (FLMT00174)
Correct for Detector Non-linearity: No (FLMT00174)
Correct for Stray Light: No (FLMT00174)
Number of Pixels in Processed Spectrum: 3648
>>>>>Begin Processed Spectral Data<<<<<
345.74	3162.06
345.96	3162.06
346.18	3162.06
346.39	3171.48
346.61	3208.59
346.83	3209.74
347.05	3214.90
347.27	3208.02
347.49	3211.79
347.71	3230.06
347.93	3214.16
348.15	3232.27
348.36	3219.82
348.58	3223.91
348.80	3223.67
349.02	3220.31
349.24	3202.29
349.46	3297.48
349.68	3302.06
349.90	3327.29
350.11	3299.28
350.33	3306.24
350.55	3294.94
350.77	3310.34
350.99	3294.94
351.21	3324.51
351.43	3290.84
351.65	3309.52
351.86	3306.40
352.08	3303.05
352.30	3284.53
352.52	3319.59
352.74	3299.28
352.96	3288.55
353.18	3307.96
353.39	3316.48
353.61	3279.45
353.83	3302.47
354.05	3339.34
354.27	3306.65
354.49	3310.50
354.70	3309.03
354.92	3299.20
355.14	3267.33
355.36	3290.76
355.58	3292.07
355.80	3297.72
356.02	3305.18
356.23	3308.70
356.45	3301.82
356.67	3299.44
356.89	3316.64
357.11	3318.77
357.33	3324.02
357.54	3305.26
357.76	3292.72
357.98	3290.02
358.20	3314.10
358.42	3288.63
358.63	3309.60
358.85	3310.75
359.07	3311.98
359.29	3283.96
359.51	3289.37
359.73	3300.59
359.94	3320.25
360.16	3296.49
360.38	3304.52
360.60	3285.35
360.82	3308.86
361.03	3308.94
361.25	3313.29
361.47	3311.32
361.69	3332.21
361.91	3296.16
362.12	3326.39
362.34	3299.77
362.56	3316.56
362.78	3303.70
363.00	3324.92
363.21	3300.51
363.43	3331.55
363.65	3303.70
363.87	3312.38
364.09	3325.82
364.30	3298.29
364.52	3296.33
364.74	3317.63
364.96	3307.63
365.17	3304.11
365.39	3310.99
365.61	3280.76
365.83	3310.01
366.05	3306.32
366.26	3286.74
366.48	3312.30
366.70	3300.59
366.92	3327.38
367.13	3314.92
367.35	3315.50
367.57	3299.28
367.79	3320.09
368.01	3326.72
368.22	3317.38
368.44	3289.45
368.66	3319.76
368.88	3304.44
369.09	3318.36
369.31	3322.79
369.53	3294.94
369.75	3288.55
369.96	3324.84
370.18	3309.27
370.40	3325.25
370.62	3309.03
370.83	3310.91
371.05	3340.89
371.27	3318.86
371.49	3302.80
371.70	3345.23
371.92	3305.26
372.14	3320.99
372.36	3307.63
372.57	3324.18
372.79	3328.77
373.01	3313.04
373.22	3300.83
373.44	3319.10
373.66	3327.05
373.88	3329.10
374.09	3319.76
374.31	3310.66
374.53	3303.78
374.75	3323.53
374.96	3322.21
375.18	3336.88
375.40	3304.85
375.61	3326.88
375.83	3312.55
376.05	3321.31
376.27	3330.08
376.48	3298.79
376.70	3302.96
376.92	3331.96
377.13	3302.55
377.35	3313.53
377.57	3330.08
377.79	3321.48
378.00	3305.99
378.22	3339.83
378.44	3309.76
378.65	3345.48
378.87	3339.83
379.09	3333.11
379.30	3325.98
379.52	3338.52
379.74	3315.99
379.96	3316.40
380.17	3306.40
380.39	3313.37
380.61	3332.05
380.82	3329.75
381.04	3315.50
381.26	3349.99
381.47	3343.76
381.69	3343.68
381.91	3346.71
382.12	3339.42
382.34	3347.77
382.56	3347.28
382.77	3331.96
382.99	3350.89
383.21	3354.98
383.42	3388.81
383.64	3358.83
383.86	3348.92
384.07	3358.34
384.29	3358.50
384.51	3351.87
384.72	3368.91
384.94	3358.18
385.16	3359.00
385.37	3364.65
385.59	3363.17
385.81	3358.67
386.02	3367.60
386.24	3380.87
386.46	3358.50
386.67	3366.04
386.89	3394.47
387.11	3388.49
387.32	3374.97
387.54	3371.37
387.76	3397.33
387.97	3404.22
388.19	3387.18
388.40	3387.75
388.62	3382.59
388.84	3382.10
389.05	3387.01
389.27	3368.01
389.49	3398.24
389.70	3380.30
389.92	3383.49
390.14	3385.70
390.35	3393.81
390.57	3386.36
390.78	3402.25
391.00	3364.73
391.22	3392.91
391.43	3390.04
391.65	3397.50
391.86	3385.54
392.08	3412.65
392.30	3390.62
392.51	3386.19
392.73	3422.32
392.95	3408.07
393.16	3399.87
393.38	3417.16
393.59	3392.26
393.81	3420.52
394.03	3406.67
394.24	3400.20
394.46	3400.61
394.67	3424.61
394.89	3411.34
395.11	3440.51
395.32	3424.12
395.54	3434.36
395.75	3433.30
395.97	3416.50
396.19	3407.90
396.40	3429.45
396.62	3423.88
396.83	3450.75
397.05	3432.23
397.26	3444.85
397.48	3439.60
397.70	3443.29
397.91	3446.57
398.13	3446.73
398.34	3455.09
398.56	3460.74
398.78	3477.29
398.99	3503.75
399.21	3456.89
399.42	3494.74
399.64	3460.25
399.85	3484.41
400.07	3482.37
400.29	3519.80
400.50	3491.87
400.72	3519.80
400.93	3493.75
401.15	3500.47
401.36	3514.81
401.58	3548.80
401.79	3546.92
402.01	3547.41
402.23	3538.40
402.44	3575.34
402.66	3559.78
402.87	3580.10
403.09	3581.65
403.30	3591.73
403.52	3568.95
403.73	3576.08
403.95	3592.22
404.16	3610.24
404.38	3604.34
404.60	3598.36
404.81	3623.35
405.03	3645.96
405.24	3646.45
405.46	3660.38
405.67	3667.99
405.89	3642.35
406.10	3661.85
406.32	3665.70
406.53	3690.36
406.75	3692.90
406.96	3668.24
407.18	3673.32
407.39	3678.07
407.61	3685.11
407.82	3674.79
408.04	3703.87
408.25	3680.12
408.47	3696.17
408.68	3703.38
408.90	3713.70
409.12	3722.63
409.33	3732.46
409.55	3689.46
409.76	3721.08
409.98	3709.85
410.19	3715.51
410.41	3729.19
410.62	3710.76
410.84	3697.65
411.05	3717.15
411.27	3726.32
411.48	3738.69
411.70	3734.43
411.91	3738.77
412.12	3719.52
412.34	3737.30
412.55	3704.53
412.77	3718.21
412.98	3713.13
413.20	3718.54
413.41	3736.31
413.63	3728.29
413.84	3727.22
414.06	3732.30
414.27	3720.91
414.49	3732.30
414.70	3744.83
414.92	3754.99
415.13	3733.45
415.35	3760.15
415.56	3744.51
415.78	3763.59
415.99	3750.90
416.21	3744.92
416.42	3769.98
416.63	3770.23
416.85	3771.87
417.06	3776.54
417.28	3757.61
417.49	3781.86
417.71	3783.42
417.92	3787.19
418.14	3762.94
418.35	3792.43
418.57	3798.08
418.78	3800.78
418.99	3793.00
419.21	3829.70
419.42	3810.61
419.64	3816.10
419.85	3819.54
420.07	3854.20
420.28	3837.89
420.50	3854.44
420.71	3858.62
420.92	3882.05
421.14	3887.21
421.35	3881.97
421.57	3880.25
421.78	3907.69
422.00	3906.71
422.21	3918.83
422.42	3947.34
422.64	3955.45
422.85	3970.19
423.07	3987.97
423.28	3979.86
423.50	4002.71
423.71	3996.57
423.92	4053.34
424.14	4027.45
424.35	4062.68
424.57	4081.03
424.78	4082.83
424.99	4094.79
425.21	4111.67
425.42	4123.30
425.64	4137.80
425.85	4161.80
426.06	4150.25
426.28	4190.47
426.49	4240.77
426.71	4214.06
426.92	4220.70
427.13	4270.42
427.35	4321.62
427.56	4315.89
427.78	4306.96
427.99	4336.94
428.20	4391.42
428.42	4389.78
428.63	4437.29
428.84	4395.76
429.06	4434.67
429.27	4485.54
429.49	4480.63
429.70	4503.73
429.91	4493.90
430.13	4551.24
430.34	4546.90
430.56	4573.85
430.77	4591.63
430.98	4593.92
431.20	4641.35
431.41	4677.81
431.62	4663.22
431.84	4656.10
432.05	4679.28
432.26	4695.09
432.48	4671.17
432.69	4758.74
432.91	4706.40
433.12	4744.00
433.33	4747.44
433.55	4796.92
433.76	4813.87
433.97	4779.55
434.19	4759.48
434.40	4797.90
434.61	4798.64
434.83	4809.45
435.04	4810.51
435.25	4837.47
435.47	4845.90
435.68	4814.69
435.89	4856.47
436.11	4832.22
436.32	4874.98
436.53	4856.64
436.75	4817.31
436.96	4825.92
437.17	4825.18
437.39	4834.19
437.60	4842.54
437.81	4859.01
438.03	4855.00
438.24	4837.88
438.45	4885.22
438.67	4844.02
438.88	4857.86
439.09	4894.07
439.31	4876.71
439.52	4894.32
439.73	4854.51
439.94	4836.16
440.16	4862.94
440.37	4845.41
440.58	4870.73
440.80	4858.68
441.01	4841.07
441.22	4926.76
441.44	4871.54
441.65	4847.21
441.86	4859.09
442.08	4893.01
442.29	4845.74
442.50	4900.30
442.71	4860.89
442.93	4884.24
443.14	4862.53
443.35	4884.16
443.57	4869.58
443.78	4893.99
443.99	4901.61
444.20	4889.98
444.42	4896.69
444.63	4917.50
444.84	4924.22
445.06	4937.32
445.27	4915.45
445.48	4903.16
445.69	4930.28
445.91	4931.02
446.12	4918.16
446.33	4965.67
446.54	5007.53
446.76	4968.37
446.97	5013.10
447.18	4986.15
447.39	5004.91
447.61	5033.91
447.82	5063.64
448.03	5037.84
448.25	5073.15
448.46	5094.85
448.67	5130.00
448.88	5075.60
449.10	5165.55
449.31	5131.72
449.52	5135.98
449.73	5181.03
449.95	5232.07
450.16	5217.32
450.37	5264.10
450.58	5359.62
450.79	5220.60
451.01	5293.59
451.22	5318.49
451.43	5330.53
451.64	5398.20
451.86	5393.45
452.07	5430.39
452.28	5433.51
452.49	5545.41
452.71	5489.87
452.92	5492.90
453.13	5564.99
453.34	5592.67
453.55	5635.85
453.77	5651.16
453.98	5701.95
454.19	5672.63
454.40	5729.32
454.62	5797.14
454.83	5778.14
455.04	5868.17
455.25	5791.25
455.46	6013.66
455.68	5944.02
455.89	5955.82
456.10	6013.98
456.31	6041.43
456.52	6121.71
456.74	6130.39
456.95	6266.21
457.16	6231.15
457.37	6317.74
457.58	6342.89
457.80	6339.12
458.01	6335.68
458.22	6591.76
458.43	6458.47
458.64	6548.26
458.86	6514.59
459.07	6622.48
459.28	6648.03
459.49	6738.64
459.70	6901.74
459.91	6885.60
460.13	6847.18
460.34	6919.19
460.55	6928.11
460.76	7083.51
460.97	7087.36
461.19	7073.77
461.40	7313.62
461.61	7236.70
461.82	7261.11
462.03	7384.24
462.24	7365.31
462.46	7385.79
462.67	7411.60
462.88	7514.57
463.09	7514.98
463.30	7646.87
463.51	7583.71
463.72	7755.58
463.94	7739.03
464.15	7774.17
464.36	7755.00
464.57	7929.74
464.78	7957.83
464.99	7969.30
465.20	7972.74
465.42	8087.59
465.63	8075.47
465.84	8070.14
466.05	8189.17
466.26	8196.71
466.47	8257.00
466.68	8226.77
466.90	8331.96
467.11	8301.97
467.32	8380.78
467.53	8447.13
467.74	8331.05
467.95	8378.32
468.16	8489.08
468.37	8537.98
468.59	8528.64
468.80	8605.32
469.01	8439.19
469.22	8580.01
469.43	8687.32
469.64	8622.11
469.85	8700.67
470.06	8706.16
470.28	8774.32
470.49	8628.42
470.70	8716.65
470.91	8875.73
471.12	8729.34
471.33	8888.92
471.54	8807.00
471.75	8824.04
471.96	8994.84
472.17	8861.15
472.39	9096.83
472.60	8886.05
472.81	9069.39
473.02	8953.39
473.23	9038.83
473.44	9108.63
473.65	9034.98
473.86	9084.22
474.07	9056.53
474.28	9115.18
474.49	9229.38
474.71	9213.07
474.92	9247.15
475.13	9173.75
475.34	9195.38
475.55	9219.79
475.76	9256.98
475.97	9366.34
476.18	9332.76
476.39	9404.11
476.60	9443.84
476.81	9410.91
477.02	9502.58
477.23	9466.86
477.44	9462.76
477.65	9518.06
477.87	9621.11
478.08	9625.04
478.29	9614.64
478.50	9761.27
478.71	9696.89
478.92	9783.64
479.13	9757.67
479.34	9775.28
479.55	9834.26
479.76	9845.40
479.97	9835.66
480.18	10036.03
480.39	9917.08
480.60	10073.30
480.81	10083.95
481.02	10133.68
481.23	10140.39
481.44	10242.47
481.65	10294.89
481.86	10379.35
482.07	10228.78
482.28	10593.65
482.49	10450.29
482.71	10471.26
482.92	10578.41
483.13	10691.63
483.34	10605.12
483.55	10720.13
483.76	10731.03
483.97	10870.86
484.18	10886.35
484.39	10947.70
484.60	10947.21
484.81	11128.91
485.02	11095.49
485.23	11232.13
485.44	11315.85
485.65	11388.02
485.86	11334.85
486.07	11512.45
486.28	11565.13
486.49	11655.32
486.70	11751.65
486.91	11866.83
487.12	11811.05
487.33	11862.49
487.54	12119.55
487.75	12108.57
487.96	12151.83
488.17	12164.93
488.38	12342.94
488.59	12417.41
488.80	12519.07
489.01	12564.94
489.22	12799.15
489.43	12779.73
489.64	12750.65
489.85	13072.76
490.06	12907.94
490.26	13153.94
490.47	13150.25
490.68	13332.44
490.89	13521.51
491.10	13446.31
491.31	13654.71
491.52	13860.08
491.73	13891.54
491.94	13928.56
492.15	14096.99
492.36	14242.07
492.57	14313.50
492.78	14380.67
492.99	14496.59
493.20	14645.11
493.41	14807.88
493.62	14908.39
493.83	14952.47
494.04	15106.15
494.25	15282.68
494.46	15359.44
494.67	15423.42
494.88	15642.79
495.08	15740.52
495.29	15888.47
495.50	16114.48
495.71	16091.14
495.92	16329.85
496.13	16458.05
496.34	16436.92
496.55	16693.48
496.76	16989.78
496.97	16793.92
497.18	17117.66
497.39	17124.38
497.60	17542.82
497.81	17402.00
498.02	17640.47
498.22	17570.34
498.43	18005.25
498.64	18041.87
498.85	18151.64
499.06	18327.03
499.27	18631.03
499.48	18347.01
499.69	18701.23
499.90	18830.25
500.11	19093.29
500.32	19358.71
500.52	19210.44
500.73	19677.05
500.94	19746.43
501.15	19875.37
501.36	19995.30
501.57	19909.53
501.78	20215.25
501.99	20456.18
502.20	20515.08
502.41	20656.39
502.61	20696.44
502.82	20995.61
503.03	20915.33
503.24	21201.06
503.45	21127.17
503.66	21432.73
503.87	21505.15
504.08	21747.05
504.28	21682.91
504.49	21853.14
504.70	22009.11
504.91	22155.91
505.12	22037.86
505.33	22376.60
505.54	22460.56
505.75	22521.35
505.95	22709.60
506.16	22636.53
506.37	22595.89
506.58	22995.74
506.79	22726.23
507.00	23162.61
507.21	22945.52
507.41	23037.35
507.62	23057.10
507.83	23392.88
508.04	23157.28
508.25	23473.98
508.46	23281.96
508.67	23665.26
508.87	23478.08
509.08	23736.12
509.29	23604.97
509.50	23687.63
509.71	23765.86
509.92	23819.68
510.12	23642.65
510.33	23711.71
510.54	23670.18
510.75	23839.99
510.96	23964.51
511.17	24047.00
511.37	23950.01
511.58	24027.92
511.79	23841.71
512.00	23817.22
512.21	24125.89
512.42	24051.75
512.62	24060.52
512.83	24243.77
513.04	24022.35
513.25	24223.62
513.46	23726.13
513.66	24255.49
513.87	23984.83
514.08	24105.08
514.29	23900.70
514.50	23825.66
514.71	23992.12
514.91	23712.12
515.12	23694.43
515.33	23863.18
515.54	23681.07
515.75	23878.99
515.95	23607.26
516.16	23573.59
516.37	23698.77
516.58	23674.76
516.78	23568.02
516.99	23688.44
517.20	23530.34
517.41	23540.09
517.62	23450.63
517.82	23371.01
518.03	23584.98
518.24	23664.52
518.45	23228.96
518.66	23420.57
518.86	23147.54
519.07	23436.71
519.28	22971.25
519.49	23323.25
519.69	23159.58
519.90	23153.35
520.11	23117.88
520.32	23034.49
520.52	23199.06
520.73	22902.84
520.94	23143.19
521.15	23009.34
521.36	22775.21
521.56	23141.23
521.77	22690.76
521.98	23030.23
522.19	22652.75
522.39	22826.58
522.60	22643.33
522.81	22669.62
523.02	22546.99
523.22	22761.53
523.43	22773.82
523.64	22563.21
523.84	22665.85
524.05	22754.49
524.26	22634.56
524.47	22509.88
524.67	22536.75
524.88	22584.75
525.09	22651.68
525.30	22428.78
525.50	22477.93
525.71	22531.59
525.92	22512.58
526.13	22640.05
526.33	22492.84
526.54	22316.39
526.75	22393.39
526.95	22588.11
527.16	22179.09
527.37	22530.93
527.58	22550.35
527.78	22531.34
527.99	22620.72
528.20	22711.65
528.40	22522.09
528.61	22382.99
528.82	22611.46
529.03	22601.22
529.23	22558.79
529.44	22685.92
529.65	22661.43
529.85	22684.78
530.06	22587.95
530.27	22614.82
530.47	22425.50
530.68	22926.68
530.89	22505.78
531.09	22871.80
531.30	22779.56
531.51	22688.63
531.72	22969.85
531.92	22904.07
532.13	22954.53
532.34	22905.14
532.54	22878.92
532.75	23001.56
532.96	23007.29
533.16	23188.90
533.37	23292.04
533.58	23182.68
533.78	23342.26
533.99	23373.47
534.20	23185.38
534.40	23397.80
534.61	23478.24
534.82	23551.39
535.02	23617.91
535.23	23639.70
535.44	23782.73
535.64	23758.90
535.85	23892.59
536.06	23904.38
536.26	23886.77
536.47	23969.43
536.68	24317.91
536.88	24108.52
537.09	24475.60
537.29	24125.56
537.50	24645.67
537.71	24476.99
537.91	24657.05
538.12	24849.32
538.33	24671.96
538.53	24839.08
538.74	24980.06
538.95	24994.72
539.15	24965.80
539.36	25193.95
539.56	25386.21
539.77	25240.07
539.98	25432.66
540.18	25513.19
540.39	25509.42
540.60	25763.86
540.80	25905.58
541.01	25965.29
541.21	26066.55
541.42	26267.49
541.63	26309.60
541.83	26478.76
542.04	26522.59
542.25	26614.99
542.45	26801.19
542.66	26875.90
542.86	27104.62
543.07	26669.47
543.28	27383.47
543.48	27288.61
543.69	27541.00
543.89	27506.27
544.10	27930.61
544.31	27877.44
544.51	27898.90
544.72	28125.33
544.92	28153.67
545.13	28543.36
545.33	28580.47
545.54	28661.16
545.75	28946.89
545.95	28888.16
546.16	28923.79
546.36	29419.81
546.57	29012.34
546.78	28612.25
546.98	29093.12
547.19	28738.49
547.39	29680.56
547.60	29993.24
547.80	30350.57
548.01	30539.97
548.22	30330.99
548.42	30608.20
548.63	30842.33
548.83	30776.96
549.04	31128.88
549.24	31027.96
549.45	31388.32
549.65	31773.09
549.86	31434.68
550.07	31667.41
550.27	32071.85
550.48	32166.71
550.68	32237.32
550.89	32346.36
551.09	32635.12
551.30	32699.10
551.50	32957.39
551.71	32898.32
551.91	33047.58
552.12	33260.00
552.33	33647.88
552.53	33502.72
552.74	34025.53
552.94	34119.41
553.15	33958.68
553.35	34217.63
553.56	34096.71
553.76	34623.94
553.97	34370.90
554.17	34651.80
554.38	35230.55
554.58	34877.97
554.79	35451.57
554.99	35080.56
555.20	35298.22
555.40	35679.14
555.61	35509.81
555.81	35465.00
556.02	36172.29
556.22	36115.44
556.43	36014.60
556.63	36183.84
556.84	36199.08
557.04	36650.12
557.25	36208.01
557.45	36647.99
557.66	36783.65
557.86	36672.81
558.07	37130.74
558.27	36935.12
558.48	37062.09
558.68	37171.12
558.89	37276.88
559.09	37539.92
559.30	37430.72
559.50	37673.04
559.71	37327.26
559.91	37983.76
560.12	37688.20
560.32	37755.37
560.53	37986.05
560.73	37794.94
560.94	38157.18
561.14	37838.52
561.35	38349.36
561.55	38225.58
561.76	38355.75
561.96	37947.88
562.17	38383.03
562.37	38580.62
562.57	38273.83
562.78	38233.53
562.98	38494.60
563.19	38546.95
563.39	38751.17
563.60	38655.74
563.80	38258.43
564.01	38746.75
564.21	38449.55
564.42	38439.47
564.62	38616.09
564.82	38817.04
565.03	38605.19
565.23	38554.98
565.44	38708.17
565.64	38471.42
565.85	38707.10
566.05	38567.43
566.25	38644.84
566.46	38273.18
566.66	38474.29
566.87	38439.47
567.07	38338.06
567.28	38410.31
567.48	38475.27
567.68	37929.53
567.89	38637.88
568.09	38133.42
568.30	38119.58
568.50	38360.75
568.71	38066.91
568.91	38248.19
569.11	37918.96
569.32	37988.18
569.52	38052.16
569.73	37558.93
569.93	37811.65
570.13	37620.45
570.34	37446.78
570.54	37651.66
570.75	37496.75
570.95	37457.76
571.15	37314.40
571.36	37601.61
571.56	37240.92
571.77	37140.57
571.97	36721.31
572.17	37206.76
572.38	36968.62
572.58	37060.62
572.79	36791.19
572.99	36840.09
573.19	36698.13
573.40	36552.80
573.60	36492.92
573.81	36386.75
574.01	36424.43
574.21	36275.18
574.42	36058.59
574.62	35761.96
574.82	36017.30
575.03	35605.58
575.23	35951.85
575.43	35576.66
575.64	35501.37
575.84	35622.53
576.05	35239.40
576.25	35342.70
576.45	35124.30
576.66	35454.03
576.86	35037.06
577.06	35195.08
577.27	34979.55
577.47	35013.63
577.67	34766.40
577.88	34352.96
578.08	34699.80
578.28	34731.50
578.49	34476.73
578.69	34484.52
578.89	34198.62
579.10	34290.29
579.30	34482.55
579.50	34158.32
579.71	33859.80
579.91	34170.36
580.11	33811.64
580.32	33741.19
580.52	33654.11
580.72	33859.23
580.93	33452.18
581.13	33304.72
581.33	33571.53
581.54	33281.95
581.74	33219.53
581.94	33264.26
582.15	33235.01
582.35	32977.29
582.55	32986.96
582.76	32752.75
582.96	33082.15
583.16	32789.45
583.37	32866.05
583.57	32532.23
583.77	32769.30
583.97	32150.00
584.18	32717.12
584.38	32552.79
584.58	32320.88
584.79	32581.38
584.99	32469.15
585.19	32332.92
585.40	32309.08
585.60	32386.66
585.80	32024.66
586.00	32203.41
586.21	32109.53
586.41	32090.11
586.61	32067.34
586.82	31992.63
587.02	31846.49
587.22	32085.53
587.42	31659.14
587.63	32020.16
587.83	31585.17
588.03	31742.78
588.23	31470.40
588.44	31700.34
588.64	31402.98
588.84	31609.09
589.05	31679.29
589.25	31641.20
589.45	31607.28
589.65	31365.46
589.86	31540.68
590.06	31547.32
590.26	31326.30
590.46	31530.85
590.67	31093.00
590.87	31472.77
591.07	31558.79
591.27	31194.25
591.48	31378.81
591.68	30976.43
591.88	31520.12
592.08	30972.50
592.29	31298.86
592.49	31221.61
592.69	31416.58
592.89	31247.91
593.10	31312.13
593.30	31243.57
593.50	31522.91
593.70	30995.60
593.90	31448.12
594.11	31320.24
594.31	31285.18
594.51	31459.09
594.71	31395.52
594.92	31436.48
595.12	31300.83
595.32	31376.19
595.52	31469.99
595.72	31100.78
595.93	31467.04
596.13	31374.64
596.33	31153.21
596.53	31605.40
596.73	31541.67
596.94	31417.64
597.14	31688.55
597.34	31513.16
597.54	31798.97
597.74	31448.77
597.95	31565.01
598.15	31652.26
598.35	31734.09
598.55	31834.77
598.75	31722.79
598.96	31965.02
599.16	31803.73
599.36	31885.15
599.56	31828.06
599.76	31789.72
599.97	32148.28
600.17	31965.52
600.37	32090.61
600.57	31731.06
600.77	32251.41
600.97	32164.33
601.18	32458.91
601.38	32237.81
601.58	32392.72
601.78	32424.92
601.98	32276.40
602.18	32518.71
602.39	32791.50
602.59	32656.99
602.79	32593.59
602.99	32701.72
603.19	32725.31
603.39	32713.35
603.60	32783.64
603.80	32883.82
604.00	32969.68
604.20	33073.63
604.40	33279.66
604.60	33091.73
604.80	33170.79
605.01	33389.02
605.21	33389.26
605.41	33376.65
605.61	33264.34
605.81	33467.74
606.01	33830.31
606.21	33466.02
606.42	33883.64
606.62	33729.88
606.82	34043.06
607.02	33951.72
607.22	34182.07
607.42	34410.13
607.62	34107.53
607.82	34418.65
608.03	34466.33
608.23	34447.08
608.43	34281.11
608.63	34767.96
608.83	34711.92
609.03	34796.14
609.23	34901.48
609.43	35023.46
609.63	34907.55
609.84	34934.33
610.04	35332.05
610.24	35403.65
610.44	35450.67
610.64	35396.93
610.84	35720.59
611.04	36001.32
611.24	35869.44
611.44	35519.40
611.64	35989.69
611.85	36041.87
612.05	36239.22
612.25	36386.67
612.45	36261.50
612.65	36568.12
612.85	36648.24
613.05	36613.75
613.25	36963.79
613.45	36972.96
613.65	37046.12
613.85	36809.45
614.05	37204.55
614.25	37403.04
614.46	37334.88
614.66	37275.82
614.86	37162.36
615.06	37324.64
615.26	37712.69
615.46	37299.74
615.66	38001.45
615.86	38089.43
616.06	38042.41
616.26	38147.35
616.46	38649.02
616.66	38451.19
616.86	38770.42
617.06	38519.59
617.26	38951.63
617.46	38855.05
617.66	38751.50
617.86	38891.09
618.07	39122.76
618.27	39093.76
618.47	39131.85
618.67	39346.15
618.87	39442.73
619.07	39425.69
619.27	39500.57
619.47	39660.88
619.67	39938.59
619.87	39653.67
620.07	40112.99
620.27	40081.78
620.47	39926.87
620.67	40204.82
620.87	40299.52
621.07	40536.35
621.27	40601.55
621.47	40426.08
621.67	40752.69
621.87	40591.81
622.07	41163.76
622.27	41152.29
622.47	40952.17
622.67	41231.02
622.87	41070.05
623.07	41469.65
623.27	41833.78
623.47	41154.92
623.67	41582.37
623.87	41852.37
624.07	41847.78
624.27	41552.06
624.47	41834.19
624.67	41698.94
624.87	41951.33
625.07	41768.81
625.27	42263.85
625.47	41986.80
625.67	42060.28
625.87	42364.20
626.07	42374.19
626.27	42653.86
626.47	42635.84
626.67	42543.36
626.87	42443.99
627.07	42866.85
627.27	42861.69
627.47	43074.60
627.67	42867.75
627.87	42829.58
628.07	43131.53
628.27	42977.77
628.47	42883.65
628.67	43417.43
628.86	43510.49
629.06	43212.22
629.26	43115.15
629.46	43448.56
629.66	43390.56
629.86	42967.45
630.06	43413.66
630.26	43424.06
630.46	43698.66
630.66	43318.14
630.86	43525.07
631.06	43611.33
631.26	43430.86
631.46	44014.94
631.66	43846.68
631.86	43570.94
632.06	43980.78
632.26	43665.97
632.45	43675.06
632.65	43676.21
632.85	43776.72
633.05	43804.41
633.25	43948.67
633.45	43539.41
633.65	43647.29
633.85	44055.90
634.05	43346.57
634.25	43615.92
634.45	43696.12
634.65	43989.47
634.84	43605.51
635.04	43715.29
635.24	43349.68
635.44	43619.44
635.64	43296.19
635.84	43581.59
636.04	43466.01
636.24	43556.04
636.44	43684.40
636.64	43083.36
636.84	43804.99
637.03	43222.13
637.23	43486.40
637.43	43357.22
637.63	43138.91
637.83	43328.55
638.03	43269.81
638.23	42819.83
638.43	43105.48
638.62	43356.73
638.82	42465.04
639.02	43164.14
639.22	42832.61
639.42	43042.90
639.62	42600.54
639.82	42727.35
640.02	42669.67
640.21	42820.81
640.41	42211.18
640.61	42602.99
640.81	42474.95
641.01	42414.01
641.21	42150.88
641.41	42670.41
641.61	42104.76
641.80	42157.85
642.00	42361.50
642.20	42244.93
642.40	41610.55
642.60	42004.41
642.80	42012.28
642.99	41636.92
643.19	41847.62
643.39	41386.01
643.59	41692.71
643.79	41428.11
643.99	41571.96
644.19	41488.82
644.38	40953.48
644.58	41204.39
644.78	41071.03
644.98	40908.26
645.18	41011.15
645.38	41215.45
645.57	40785.30
645.77	40859.27
645.97	40642.27
646.17	40795.62
646.37	40561.99
646.56	40324.10
646.76	40222.84
646.96	40244.47
647.16	39992.57
647.36	40092.35
647.55	39855.44
647.75	39822.26
647.95	39607.96
648.15	39621.40
648.35	39583.47
648.55	39631.06
648.74	39401.44
648.94	39430.85
649.14	39608.04
649.34	39277.91
649.54	39033.71
649.73	39030.60
649.93	38621.82
650.13	38646.81
650.33	38283.34
650.52	38608.31
650.72	38632.15
650.92	38398.59
651.12	38220.67
651.32	38443.16
651.51	38403.43
651.71	38328.55
651.91	37981.87
652.11	37842.12
652.30	37594.73
652.50	37857.19
652.70	37708.92
652.90	37280.73
653.10	37501.67
653.29	37230.02
653.49	37270.82
653.69	36927.17
653.89	36911.77
654.08	36850.41
654.28	37107.47
654.48	36870.07
654.68	36989.10
654.87	36733.60
655.07	36455.73
655.27	36682.15
655.47	36313.44
655.66	36198.67
655.86	35994.36
656.06	36380.20
656.26	35757.29
656.45	36012.63
656.65	35861.90
656.85	35668.90
657.04	35468.85
657.24	35423.55
657.44	35227.19
657.64	35618.93
657.83	34860.28
658.03	35302.48
658.23	35129.95
658.43	34946.21
658.62	34982.83
658.82	34794.42
659.02	34672.36
659.21	34753.87
659.41	34445.52
659.61	34766.24
659.81	34544.40
660.00	34262.68
660.20	34416.52
660.40	34220.00
660.59	34162.08
660.79	33882.17
660.99	34122.35
661.19	34087.13
661.38	34020.04
661.58	33517.79
661.78	33671.72
661.97	33416.95
662.17	33818.03
662.37	33430.80
662.56	33322.34
662.76	33281.05
662.96	33279.82
663.15	33281.29
663.35	33207.81
663.55	32904.88
663.74	32713.02
663.94	32961.65
664.14	32510.36
664.33	32689.19
664.53	32582.77
664.73	32807.64
664.93	32417.87
665.12	32666.00
665.32	32486.35
665.52	32566.72
665.71	32353.89
665.91	32369.37
666.10	32111.58
666.30	32330.38
666.50	32000.00
666.69	31913.99
666.89	32147.29
667.09	32274.10
667.28	31920.05
667.48	31803.23
667.68	31861.15
667.87	31788.00
668.07	31521.11
668.27	31804.87
668.46	31678.14
668.66	31459.99
668.86	31625.14
669.05	31376.60
669.25	31479.08
669.44	31294.44
669.64	31229.07
669.84	31163.94
670.03	31464.99
670.23	31175.00
670.43	31195.64
670.62	31075.63
670.82	31043.52
671.01	31254.46
671.21	30925.39
671.41	30892.38
671.60	31041.96
671.80	31176.80
672.00	30892.13
672.19	30895.33
672.39	30852.08
672.58	30803.17
672.78	30624.75
672.98	30912.53
673.17	30753.45
673.37	30266.93
673.56	30518.09
673.76	30558.23
673.96	30621.15
674.15	30558.56
674.35	30536.36
674.54	30453.62
674.74	30387.35
674.94	30354.75
675.13	30469.27
675.33	30216.55
675.52	30579.45
675.72	30439.29
675.91	30375.14
676.11	30561.18
676.31	30151.59
676.50	30314.85
676.70	30248.83
676.89	30384.98
677.09	30386.70
677.28	30447.40
677.48	30052.63
677.68	30410.04
677.87	30136.19
678.07	30172.56
678.26	30145.44
678.46	30250.63
678.65	30098.83
678.85	30304.29
679.04	29935.40
679.24	30035.26
679.44	29836.20
679.63	30093.59
679.83	29936.31
680.02	29946.55
680.22	29896.41
680.41	30044.60
680.61	30007.00
680.80	29906.57
681.00	29989.06
681.19	29921.72
681.39	29820.31
681.59	29665.56
681.78	29703.66
681.98	29955.15
682.17	29601.75
682.37	29867.25
682.56	29608.22
682.76	29878.64
682.95	29767.96
683.15	29818.18
683.34	29673.43
683.54	29797.78
683.73	29849.23
683.93	29625.01
684.12	29798.44
684.32	29935.16
684.51	29547.36
684.71	29793.69
684.90	29755.51
685.10	29706.20
685.29	29693.25
685.49	29747.40
685.68	29850.13
685.88	29815.72
686.07	29554.81
686.27	29908.21
686.46	29794.91
686.66	29718.57
686.85	29974.32
687.05	29800.89
687.24	29800.08
687.44	30070.82
687.63	30033.79
687.83	29706.36
688.02	30007.08
688.22	30010.03
688.41	29914.43
688.61	29967.44
688.80	30001.43
689.00	29686.04
689.19	29645.33
689.39	30057.71
689.58	29941.63
689.77	29968.58
689.97	30039.69
690.16	29892.56
690.36	29616.82
690.55	29637.47
690.75	30131.68
690.94	29862.25
691.14	30022.81
691.33	29792.46
691.53	30067.21
691.72	29926.23
691.91	29921.72
692.11	29965.06
692.30	30090.07
692.50	30155.77
692.69	29939.66
692.89	30094.66
693.08	29995.94
693.28	30034.20
693.47	30239.32
693.66	30195.66
693.86	30170.02
694.05	30131.68
694.25	30205.57
694.44	30337.54
694.64	30262.92
694.83	30217.70
695.02	30226.79
695.22	30392.68
695.41	30289.95
695.61	30306.91
695.80	30394.81
695.99	30398.66
696.19	30506.05
696.38	30490.40
696.58	30323.21
696.77	30764.18
696.96	30623.19
697.16	30556.19
697.35	30581.01
697.55	30592.07
697.74	30511.29
697.93	30960.70
698.13	30606.97
698.32	30740.99
698.52	30668.66
698.71	30506.46
698.90	31084.40
699.10	30857.65
699.29	30880.58
699.49	31055.07
699.68	30896.80
699.87	30863.22
700.07	31163.69
700.26	30916.71
700.45	31033.20
700.65	30858.71
700.84	31180.00
701.04	30904.42
701.23	31215.22
701.42	31183.85
701.62	31063.43
701.81	31172.71
702.00	31157.63
702.20	30939.16
702.39	31124.70
702.58	31346.21
702.78	31157.55
702.97	31272.89
703.17	31387.66
703.36	31348.42
703.55	31235.54
703.75	31325.57
703.94	31493.50
704.13	31369.64
704.33	31360.63
704.52	31764.57
704.71	31641.36
704.91	31666.59
705.10	31533.64
705.29	31635.22
705.49	31658.48
705.68	31774.89
705.87	31807.33
706.07	31577.96
706.26	31893.92
706.45	31581.40
706.65	31549.70
706.84	31937.83
707.03	32227.00
707.23	31741.96
707.42	31756.62
707.61	32036.78
707.80	31856.73
708.00	31965.35
708.19	31848.62
708.38	32188.58
708.58	31725.49
708.77	32218.23
708.96	31946.10
709.16	32016.39
709.35	32519.04
709.54	32251.17
709.74	32216.27
709.93	32006.72
710.12	32495.12
710.31	32569.17
710.51	32352.75
710.70	32430.32
710.89	32543.62
711.09	32215.53
711.28	32215.61
711.47	32534.93
711.66	32448.51
711.86	32509.62
712.05	32520.51
712.24	32760.45
712.43	32536.08
712.63	32322.76
712.82	32790.93
713.01	32677.06
713.21	32465.71
713.40	32635.20
713.59	32931.01
713.78	32494.22
713.98	32843.52
714.17	32620.70
714.36	32780.77
714.55	32459.49
714.75	32614.31
714.94	32678.45
715.13	32907.91
715.32	32455.96
715.52	32797.89
715.71	32587.28
715.90	32694.92
716.09	32655.68
716.29	32951.00
716.48	32902.99
716.67	32478.24
716.86	32697.54
717.06	32757.01
717.25	32817.22
717.44	33002.03
717.63	32922.57
717.82	32651.50
718.02	32885.46
718.21	33062.16
718.40	33081.08
718.59	32940.02
718.79	32818.29
718.98	32745.87
719.17	32994.99
719.36	33099.43
719.55	32880.96
719.75	32845.98
719.94	32885.79
720.13	33254.51
720.32	33023.74
720.51	32969.68
720.71	32941.50
720.90	32704.09
721.09	32881.20
721.28	32650.68
721.47	33026.20
721.67	32911.60
721.86	32962.22
722.05	32961.40
722.24	32578.84
722.43	33032.59
722.63	32864.49
722.82	32854.17
723.01	33052.33
723.20	32735.55
723.39	32785.60
723.58	33083.05
723.78	32711.71
723.97	33131.63
724.16	32771.43
724.35	32879.73
724.54	32637.74
724.73	32816.32
724.93	32549.02
725.12	32808.79
725.31	32279.76
725.50	32647.57
725.69	32741.29
725.88	32530.67
726.08	32256.08
726.27	32741.20
726.46	32132.14
726.65	32840.82
726.84	32354.22
727.03	32465.14
727.23	32765.62
727.42	32433.60
727.61	32362.90
727.80	32382.07
727.99	32479.06
728.18	32519.29
728.37	32338.25
728.56	32205.78
728.76	32195.63
728.95	32347.42
729.14	32319.16
729.33	32234.54
729.52	32305.81
729.71	32233.14
729.90	32226.84
730.09	31979.52
730.29	32130.91
730.48	31672.16
730.67	32124.52
730.86	31746.96
731.05	32036.78
731.24	31798.16
731.43	31887.53
731.62	31632.02
731.81	31648.49
732.01	31941.27
732.20	31698.87
732.39	32004.59
732.58	31823.88
732.77	31354.24
732.96	31711.49
733.15	31722.22
733.34	31432.88
733.53	31469.17
733.72	31435.83
733.92	31356.53
734.11	31120.44
734.30	31259.13
734.49	31307.71
734.68	31169.35
734.87	31012.96
735.06	31079.07
735.25	31152.64
735.44	30918.43
735.63	31023.78
735.82	31038.44
736.01	30810.71
736.20	30775.73
736.40	31069.16
736.59	30904.26
736.78	31042.70
736.97	30617.71
737.16	30683.81
737.35	30715.84
737.54	30767.04
737.73	30491.80
737.92	30605.99
738.11	30735.26
738.30	30472.87
738.49	30448.79
738.68	30227.85
738.87	30328.86
739.06	30061.15
739.25	30122.43
739.44	30078.93
739.63	29939.17
739.82	29754.61
740.01	30040.26
740.20	29810.81
740.39	29809.25
740.59	29712.67
740.78	29750.43
740.97	29552.93
741.16	29416.12
741.35	29510.98
741.54	29339.69
741.73	29369.59
741.92	29230.74
742.11	29209.36
742.30	29215.67
742.49	28891.19
742.68	29163.48
742.87	28971.06
743.06	28681.56
743.25	28948.61
743.44	28734.72
743.63	28946.56
743.82	28670.83
744.01	28611.11
744.20	28494.45
744.39	28639.53
744.58	28532.22
744.77	28325.13
744.96	28113.45
745.15	28373.95
745.34	28146.46
745.53	28187.01
745.72	27992.05
745.91	28015.88
746.10	27785.45
746.29	28020.06
746.48	27958.30
746.67	27891.12
746.86	27867.45
747.04	27707.21
747.23	27525.11
747.42	27723.84
747.61	27356.52
747.80	27651.26
747.99	27235.12
748.18	27416.16
748.37	27221.35
748.56	26915.39
748.75	27013.28
748.94	26943.16
749.13	26959.46
749.32	26799.23
749.51	26895.81
749.70	26803.49
749.89	26659.31
750.08	26673.56
750.27	26320.99
750.46	26464.18
750.65	26519.97
750.84	26235.79
751.02	26316.97
751.21	26217.03
751.40	26289.86
751.59	26208.35
751.78	26092.51
751.97	26082.93
752.16	25844.71
752.35	25960.87
752.54	25661.70
752.73	25813.83
752.92	25566.84
753.11	25518.67
753.30	25533.91
753.49	25586.42
753.67	25479.19
753.86	25292.09
754.05	25431.35
754.24	25174.53
754.43	25142.18
754.62	25169.54
754.81	24959.09
755.00	25022.08
755.19	24877.99
755.38	24603.31
755.56	24836.13
755.75	24987.02
755.94	24608.72
756.13	24658.20
756.32	24622.07
756.51	24523.93
756.70	24495.84
756.89	24418.75
757.08	24290.55
757.26	24189.30
757.45	24169.55
757.64	23964.27
757.83	24086.08
758.02	23829.84
758.21	23797.97
758.40	23844.17
758.59	23808.05
758.77	23616.68
758.96	23716.95
759.15	23727.27
759.34	23406.40
759.53	23582.85
759.72	23511.34
759.91	23280.41
760.09	23425.81
760.28	23441.71
760.47	23188.33
760.66	23386.08
760.85	23016.22
761.04	23268.86
761.23	23114.11
761.41	23068.16
761.60	23108.13
761.79	22936.51
761.98	22763.42
762.17	22923.73
762.36	22609.58
762.54	22807.24
762.73	22614.82
762.92	22509.88
763.11	22602.78
763.30	22681.66
763.49	22496.94
763.67	22508.24
763.86	22490.47
764.05	22515.37
764.24	22331.79
764.43	22535.85
764.61	22168.52
764.80	22178.44
764.99	22352.68
765.18	22078.50
765.37	22148.37
765.55	22112.16
765.74	21992.07
765.93	21836.75
766.12	22017.30
766.31	21901.88
766.49	21815.70
766.68	21898.60
766.87	21793.42
767.06	21655.30
767.25	21716.66
767.43	21738.78
767.62	21631.30
767.81	21623.76
768.00	21526.45
768.19	21378.09
768.37	21413.56
768.56	21339.67
768.75	21414.38
768.94	21360.48
769.12	21201.56
769.31	21183.78
769.50	21140.53
769.69	21239.89
769.88	20968.50
770.06	21303.79
770.25	20991.35
770.44	20944.74
770.63	21071.39
770.81	20975.38
771.00	20944.17
771.19	20991.68
771.38	20902.47
771.56	20984.39
771.75	20661.79
771.94	20792.78
772.13	20704.80
772.31	20499.43
772.50	20710.37
772.69	20489.19
772.88	20620.51
773.06	20406.29
773.25	20388.92
773.44	20451.43
773.62	20398.18
773.81	20465.60
774.00	20290.62
774.19	20311.02
774.37	20210.01
774.56	20348.62
774.75	19996.61
774.94	20200.10
775.12	20030.85
775.31	20055.76
775.50	20016.03
775.68	19949.92
775.87	19910.43
776.06	19857.84
776.25	19924.03
776.43	19769.62
776.62	20007.51
776.81	19699.82
776.99	19830.89
777.18	19808.45
777.37	19679.51
777.55	19697.53
777.74	19745.61
777.93	19656.90
778.12	19603.73
778.30	19481.59
778.49	19537.13
778.68	19548.93
778.86	19556.95
779.05	19620.61
779.24	19593.24
779.42	19447.51
779.61	19350.93
779.80	19382.63
779.98	19400.98
780.17	19504.94
780.36	19306.28
780.54	19392.87
780.73	19103.37
780.92	19350.11
781.10	19219.29
781.29	19208.31
781.48	19069.87
781.66	19128.36
781.85	19153.50
782.04	19025.96
782.22	19082.89
782.41	18952.80
782.60	19044.14
782.78	18977.71
782.97	19016.62
783.16	18823.21
783.34	18876.46
783.53	18865.07
783.71	18824.11
783.90	18783.56
784.09	18794.95
784.27	18731.71
784.46	18751.37
784.65	18809.45
784.83	18669.77
785.02	18568.44
785.20	18778.15
785.39	18491.77
785.58	18764.72
785.76	18655.68
785.95	18608.58
786.14	18658.96
786.32	18681.33
786.51	18581.63
786.69	18645.85
786.88	18554.11
787.07	18506.67
787.25	18508.97
787.44	18501.02
787.62	18442.20
787.81	18570.08
788.00	18575.90
788.18	18516.59
788.37	18448.59
788.55	18764.39
788.74	18521.58
788.93	18612.10
789.11	18688.37
789.30	18565.25
789.48	18441.30
789.67	18608.01
789.86	18555.66
790.04	18595.72
790.23	18487.34
790.41	18416.40
790.60	18495.04
790.78	18491.03
790.97	18347.42
791.16	18466.04
791.34	18713.27
791.53	18446.46
791.71	18737.69
791.90	18542.47
792.08	18657.32
792.27	18680.10
792.46	18617.26
792.64	18694.60
792.83	18595.47
793.01	18624.23
793.20	18614.40
793.38	18615.63
793.57	18542.72
793.75	18593.84
793.94	18666.91
794.12	18743.91
794.31	18616.28
794.50	18747.93
794.68	18861.55
794.87	18748.17
795.05	18936.34
795.24	18728.59
795.42	18699.02
795.61	18947.89
795.79	18935.85
795.98	18690.50
796.16	18882.76
796.35	18904.96
796.53	18726.22
796.72	18931.51
796.90	18902.83
797.09	18860.07
797.27	18754.23
797.46	18766.77
797.64	18878.09
797.83	18805.02
798.01	18877.85
798.20	18986.14
798.38	18865.72
798.57	19055.69
798.75	19034.31
798.94	18800.03
799.12	19290.72
799.31	19073.06
799.49	19083.14
799.68	19010.47
799.86	18936.67
800.05	18992.86
800.23	18901.69
800.42	18887.11
800.60	19037.10
800.79	18837.79
800.97	18919.30
801.16	19184.39
801.34	18925.36
801.53	18928.39
801.71	19023.01
801.90	18930.11
802.08	19105.58
802.27	19010.64
802.45	18903.98
802.64	19032.27
802.82	19144.58
803.00	18920.77
803.19	19017.85
803.37	19235.42
803.56	19023.66
803.74	19058.48
803.93	19066.18
804.11	19009.90
804.30	18939.62
804.48	19040.62
804.67	19010.23
804.85	18974.51
805.03	19106.98
805.22	18908.98
805.40	18872.03
805.59	19033.58
805.77	19074.13
805.96	18944.53
806.14	19010.64
806.32	19069.13
806.51	19211.50
806.69	19056.84
806.88	19038.98
807.06	19049.30
807.25	19125.57
807.43	19074.21
807.61	19208.96
807.80	19094.93
807.98	19184.22
808.17	19162.76
808.35	19073.88
808.53	19267.78
808.72	19176.36
808.90	19170.95
809.09	19210.93
809.27	19177.83
809.45	19037.02
809.64	19147.52
809.82	19059.87
810.01	19073.55
810.19	19103.45
810.37	19014.41
810.56	19066.02
810.74	19193.07
810.93	18966.32
811.11	19091.66
811.29	19085.51
811.48	19164.56
811.66	19068.80
811.84	19132.29
812.03	19087.31
812.21	19094.11
812.40	19166.78
812.58	19242.88
812.76	19073.63
812.95	19241.98
813.13	18984.01
813.31	19178.00
813.50	19175.79
813.68	19121.64
813.86	19253.04
814.05	19242.06
814.23	19008.26
814.42	19147.77
814.60	19038.41
814.78	19105.25
814.97	19083.22
815.15	19039.15
815.33	19144.49
815.52	19004.33
815.70	19095.01
815.88	19124.18
816.07	18971.65
816.25	19131.22
816.43	19163.01
816.62	18990.16
816.80	19083.30
816.98	18977.79
817.17	18981.72
817.35	18986.31
817.53	19065.44
817.72	19157.19
817.90	18889.32
818.08	19041.44
818.26	19175.87
818.45	19016.86
818.63	19186.19
818.81	19194.87
819.00	18927.16
819.18	19180.70
819.36	19124.83
819.55	19161.86
819.73	18991.55
819.91	19185.37
820.09	19116.15
820.28	19240.91
820.46	19116.23
820.64	19370.84
820.83	19142.69
821.01	19169.72
821.19	19123.03
821.38	19182.26
821.56	19091.49
821.74	19206.51
821.92	19079.86
822.11	19250.82
822.29	19052.66
822.47	19118.28
822.65	19162.02
822.84	19234.19
823.02	19057.33
823.20	19371.41
823.39	19120.41
823.57	19164.97
823.75	19196.10
823.93	19107.96
824.12	19178.82
824.30	19103.62
824.48	19110.66
824.66	19230.67
824.85	18869.25
825.03	19121.23
825.21	19169.23
825.39	19151.70
825.58	19243.62
825.76	19175.79
825.94	19243.53
826.12	19218.55
826.31	19104.76
826.49	19142.86
826.67	19118.20
826.85	19125.57
827.03	19054.63
827.22	19129.50
827.40	19054.55
827.58	19017.93
827.76	19145.72
827.95	19052.50
828.13	19108.12
828.31	19128.60
828.49	19203.48
828.67	19107.47
828.86	19020.80
829.04	19097.31
829.22	19112.14
829.40	19008.10
829.58	19005.81
829.77	19123.60
829.95	19084.37
830.13	19113.28
830.31	19044.39
830.49	19108.12
830.68	19132.04
830.86	19048.89
831.04	19010.31
831.22	18980.25
831.40	18964.76
831.59	19140.48
831.77	18974.51
831.95	19130.40
832.13	18861.22
832.31	19111.56
832.50	19125.65
832.68	19062.82
832.86	19108.04
833.04	19247.30
833.22	18987.54
833.40	19346.67
833.59	19091.57
833.77	19344.46
833.95	18911.52
834.13	19460.78
834.31	19215.60
834.49	19235.51
834.67	19220.84
834.86	19311.28
835.04	19183.73
835.22	19299.81
835.40	19226.74
835.58	19183.00
835.76	19215.03
835.95	19181.93
836.13	19127.29
836.31	19065.36
836.49	19250.09
836.67	19248.37
836.85	19237.88
837.03	19192.33
837.21	19281.46
837.40	19198.40
837.58	19051.27
837.76	19201.67
837.94	19174.23
838.12	19330.94
838.30	19202.33
838.48	19243.94
838.66	19164.32
838.85	19180.78
839.03	19198.15
839.21	19189.96
839.39	19215.03
839.57	19267.37
839.75	19125.00
839.93	19181.19
840.11	19154.57
840.29	19181.19
840.47	19200.44
840.66	19196.02
840.84	19231.08
841.02	19102.72
841.20	19206.34
841.38	19165.55
841.56	19213.88
841.74	19444.56
841.92	19176.11
842.10	19168.00
842.28	19244.35
842.46	19101.73
842.65	19065.77
842.83	19157.11
843.01	19248.69
843.19	19001.63
843.37	19138.51
843.55	19041.28
843.73	19146.95
843.91	19171.20
844.09	19120.57
844.27	19246.81
844.45	19074.37
844.63	19117.54
844.81	19191.52
844.99	19226.25
845.17	19129.83
845.35	19280.23
845.54	19151.05
845.72	19167.51
845.90	19148.92
846.08	19131.14
846.26	18966.98
846.44	19243.37
846.62	19025.30
846.80	19047.83
846.98	19104.27
847.16	19116.48
847.34	19124.67
847.52	19053.65
847.70	19009.08
847.88	19124.18
848.06	19015.14
848.24	19044.88
848.42	19003.02
848.60	18981.48
848.78	19050.29
848.96	19024.32
849.14	18891.12
849.32	19073.55
849.50	18902.92
849.68	19030.87
849.86	19012.77
850.04	18907.26
850.22	18887.19
850.40	18808.14
850.58	18948.63
850.76	19173.98
850.94	18610.14
851.12	18897.59
851.30	18810.35
851.48	18927.82
851.66	18750.79
851.84	18740.88
852.02	18742.85
852.20	18841.56
852.38	18729.00
852.56	18837.95
852.74	18855.24
852.92	18757.43
853.10	18702.13
853.28	18827.22
853.46	18483.16
853.64	18813.30
853.82	18622.10
854.00	18697.22
854.18	18588.35
854.36	18546.40
854.54	18648.89
854.72	18523.06
854.90	18453.43
855.07	18524.37
855.25	18469.97
855.43	18491.19
855.61	18464.49
855.79	18409.93
855.97	18489.06
856.15	18517.73
856.33	18454.08
856.51	18553.53
856.69	18350.86
856.87	18604.81
857.05	18445.97
857.23	18520.35
857.41	18392.23
857.59	18374.95
857.77	18387.81
857.94	18416.89
858.12	18537.23
858.30	18379.95
858.48	18386.34
858.66	18384.29
858.84	18497.34
859.02	18272.96
859.20	18259.36
859.38	18465.88
859.56	18364.46
859.74	18322.03
859.92	18384.37
860.09	18214.47
860.27	18284.51
860.45	18100.36
860.63	18125.42
860.81	18232.00
860.99	18060.38
861.17	17934.23
861.35	17626.70
861.53	17551.34
861.70	17540.77
861.88	17917.19
862.06	17897.04
862.24	17635.47
862.42	17675.69
862.60	17921.77
862.78	17926.36
862.96	17953.15
863.14	17828.39
863.31	17871.07
863.49	17813.81
863.67	17809.22
863.85	17758.26
864.03	17810.04
864.21	17796.52
864.39	17794.80
864.56	17574.93
864.74	17739.42
864.92	17609.42
865.10	17557.15
865.28	17586.07
865.46	17750.15
865.64	17367.02
865.81	17630.55
865.99	17372.51
866.17	17560.43
866.35	17434.28
866.53	17441.32
866.71	17455.17
866.88	17473.19
867.06	17240.29
867.24	17354.90
867.42	17225.79
867.60	17346.46
867.78	17209.90
867.95	17359.24
868.13	17155.51
868.31	17327.13
868.49	17269.95
868.67	17191.39
868.84	17174.18
869.02	17242.18
869.20	16935.23
869.38	17147.72
869.56	16995.27
869.73	16931.87
869.91	17004.04
870.09	16963.98
870.27	16890.17
870.45	16877.39
870.62	16760.49
870.80	16904.67
870.98	16829.72
871.16	16861.66
871.34	16836.11
871.51	16883.45
871.69	16703.72
871.87	16768.03
872.05	16709.87
872.23	16750.50
872.40	16643.76
872.58	16779.58
872.76	16635.32
872.94	16639.09
873.11	16609.27
873.29	16523.26
873.47	16527.93
873.65	16481.48
873.83	16389.98
874.00	16369.00
874.18	16395.46
874.36	16255.47
874.54	16314.28
874.71	16164.13
874.89	16121.12
875.07	16199.19
875.25	16110.22
875.42	16154.38
875.60	16141.11
875.78	16230.81
875.96	16074.83
876.13	16184.44
876.31	16004.71
876.49	16037.97
876.66	15926.15
876.84	16172.97
877.02	16024.70
877.20	16078.03
877.37	16013.56
877.55	16027.73
877.73	15969.16
877.91	15910.75
878.08	15996.44
878.26	15916.65
878.44	15881.92
878.61	15882.08
878.79	15765.43
878.97	15768.46
879.15	15829.00
879.32	15818.84
879.50	15771.41
879.68	15850.46
879.85	15685.72
880.03	15864.79
880.21	15629.11
880.38	15821.62
880.56	15632.80
880.74	15867.01
880.92	15667.78
881.09	15750.68
881.27	15670.89
881.45	15760.76
881.62	15677.53
881.80	15671.63
881.98	15523.44
882.15	15672.45
882.33	15605.36
882.51	15642.39
882.68	15444.14
882.86	15650.66
883.04	15454.63
883.21	15518.85
883.39	15599.79
883.57	15462.82
883.74	15458.15
883.92	15465.44
884.10	15495.42
884.27	15457.66
884.45	15363.53
884.63	15535.40
884.80	15408.75
884.98	15396.71
885.16	15413.83
885.33	15390.49
885.51	15364.76
885.69	15421.45
885.86	15365.75
886.04	15427.10
886.21	15252.21
886.39	15411.37
886.57	15129.98
886.74	15410.96
886.92	15292.92
887.10	15342.56
887.27	15325.61
887.45	15317.82
887.62	15275.31
887.80	15259.99
887.98	15370.58
888.15	15350.75
888.33	15275.06
888.51	15384.18
888.68	15271.70
888.86	15328.88
889.03	15253.60
889.21	15314.46
889.39	15348.30
889.56	15353.29
889.74	15261.79
889.91	15331.01
890.09	15266.54
890.27	15282.68
890.44	15292.51
890.62	15274.24
890.79	15285.22
890.97	15266.95
891.14	15162.34
891.32	15192.32
891.50	15092.79
891.67	15165.70
891.85	15076.16
892.02	15045.44
892.20	15136.13
892.38	15052.57
892.55	14985.64
892.73	15069.86
892.90	14936.41
893.08	14994.90
893.25	14952.06
893.43	15064.12
893.60	14927.81
893.78	15038.07
893.96	14989.08
894.13	15059.86
894.31	15099.43
894.48	14984.91
894.66	15012.02
894.83	15057.32
895.01	15057.16
895.18	15088.61
895.36	14974.58
895.53	15020.87
895.71	14913.80
895.89	14955.91
896.06	14818.53
896.24	14927.40
896.41	14828.44
896.59	14886.85
896.76	14674.92
896.94	14782.16
897.11	14763.40
897.29	14858.83
897.46	14736.12
897.64	14769.62
897.81	14712.28
897.99	14556.14
898.16	14847.69
898.34	14692.54
898.51	14640.36
898.69	14581.05
898.86	14638.88
899.04	14661.08
899.21	14536.81
899.39	14579.82
899.56	14535.66
899.74	14672.79
899.91	14498.80
900.09	14453.91
900.26	14502.90
900.44	14347.58
900.61	14359.70
900.79	14448.26
900.96	14339.14
901.14	14367.32
901.31	14294.99
901.49	14262.71
901.66	14292.77
901.84	14295.89
902.01	14178.58
902.19	14189.06
902.36	14069.55
902.54	14102.23
902.71	14040.63
902.88	14063.89
903.06	13860.32
903.23	14028.83
903.41	13867.78
903.58	13830.67
903.76	13755.06
903.93	13833.46
904.11	13853.12
904.28	13787.58
904.45	13758.75
904.63	13724.75
904.80	13587.13
904.98	13697.55
905.15	13548.62
905.33	13652.01
905.50	13551.33
905.68	13578.11
905.85	13490.46
906.02	13469.57
906.20	13522.25
906.37	13356.52
906.55	13324.25
906.72	13464.90
906.90	13270.26
907.07	13184.00
907.24	13251.83
907.42	13142.06
907.59	13120.11
907.77	13100.86
907.94	13051.46
908.11	13099.38
908.29	13049.82
908.46	13053.83
908.64	12938.17
908.81	12984.53
908.98	12918.42
909.16	12933.82
909.33	12838.88
909.51	12790.30
909.68	12759.34
909.85	12734.93
910.03	12698.72
910.20	12597.06
910.37	12583.21
910.55	12562.40
910.72	12497.77
910.90	12415.44
911.07	12348.19
911.24	12299.20
911.42	12394.31
911.59	12297.56
911.76	12315.17
911.94	12204.17
912.11	12185.99
912.29	12217.44
912.46	12152.65
912.63	12135.20
912.81	12045.91
912.98	12111.11
913.15	12012.73
913.33	12078.76
913.50	12024.53
913.67	11896.65
913.85	11888.54
914.02	11852.74
914.19	11800.40
914.37	11774.67
914.54	11738.96
914.71	11706.68
914.89	11661.54
915.06	11664.08
915.23	11625.75
915.41	11559.88
915.58	11512.78
915.75	11478.86
915.93	11502.38
916.10	11360.57
916.27	11284.55
916.45	11324.28
916.62	11217.46
916.79	11290.62
916.97	11197.56
917.14	11178.22
917.31	11114.65
917.49	11112.36
917.66	11084.10
917.83	11092.04
918.00	11043.22
918.18	10989.07
918.35	10912.31
918.52	10951.88
918.70	10903.63
918.87	10886.67
919.04	10874.06
919.21	10813.85
919.39	10715.05
919.56	10781.57
919.73	10630.76
919.91	10731.85
920.08	10685.97
920.25	10592.42
920.42	10685.56
920.60	10517.22
920.77	10523.04
920.94	10567.11
921.11	10434.81
921.29	10492.32
921.46	10378.53
921.63	10466.10
921.81	10343.39
921.98	10344.86
922.15	10278.84
922.32	10306.28
922.50	10252.54
922.67	10231.41
922.84	10186.76
923.01	10108.28
923.19	10111.48
923.36	10107.22
923.53	9941.91
923.70	10033.49
923.87	9973.69
924.05	10030.62
924.22	9898.82
924.39	9930.19
924.56	9830.50
924.74	9841.06
924.91	9803.22
925.08	9783.64
925.25	9776.02
925.43	9733.91
925.60	9632.01
925.77	9727.44
925.94	9593.34
926.11	9605.38
926.29	9514.78
926.46	9537.72
926.63	9505.77
926.80	9507.08
926.97	9399.03
927.15	9447.94
927.32	9337.51
927.49	9318.09
927.66	9295.65
927.83	9292.29
928.01	9205.05
928.18	9174.82
928.35	9109.94
928.52	9187.93
928.69	9075.94
928.87	9087.90
929.04	9053.50
929.21	9076.27
929.38	8982.47
929.55	9023.92
929.72	8972.07
929.90	8958.39
930.07	8996.97
930.24	8909.24
930.41	8876.22
930.58	8843.13
930.75	8832.56
930.93	8839.85
931.10	8844.60
931.27	8742.37
931.44	8770.30
931.61	8720.91
931.78	8732.70
931.95	8684.29
932.13	8642.26
932.30	8676.42
932.47	8559.77
932.64	8613.67
932.81	8548.63
932.98	8533.80
933.15	8554.86
933.33	8505.87
933.50	8522.66
933.67	8476.30
933.84	8502.43
934.01	8506.03
934.18	8481.79
934.35	8470.23
934.52	8449.92
934.70	8469.58
934.87	8389.95
935.04	8356.29
935.21	8354.32
935.38	8351.13
935.55	8300.83
935.72	8348.83
935.89	8253.31
936.06	8263.88
936.24	8186.96
936.41	8259.62
936.58	8160.91
936.75	8167.87
936.92	8146.33
937.09	8136.83
937.26	8040.82
937.43	8059.90
937.60	8052.29
937.77	8015.01
937.94	7977.66
938.12	8034.84
938.29	7939.48
938.46	7934.40
938.63	7902.87
938.80	7955.38
938.97	7888.20
939.14	7876.82
939.31	7818.24
939.48	7856.25
939.65	7769.67
939.82	7755.66
939.99	7741.49
940.16	7733.05
940.33	7715.35
940.50	7709.95
940.67	7690.12
940.85	7681.36
941.02	7641.63
941.19	7649.00
941.36	7613.53
941.53	7634.58
941.70	7611.89
941.87	7557.58
942.04	7565.20
942.21	7493.60
942.38	7506.30
942.55	7462.31
942.72	7459.36
942.89	7461.65
943.06	7396.61
943.23	7383.50
943.40	7389.40
943.57	7362.53
943.74	7361.14
943.91	7330.99
944.08	7309.61
944.25	7354.75
944.42	7307.32
944.59	7284.95
944.76	7301.91
944.93	7260.46
945.10	7274.06
945.27	7243.91
945.44	7161.09
945.61	7167.15
945.78	7169.45
945.95	7206.72
946.12	7122.51
946.29	7167.40
946.46	7109.07
946.63	7093.75
946.80	7090.56
946.97	7073.68
947.14	7035.51
947.31	7085.15
947.48	7000.37
947.65	7005.61
947.82	6987.83
947.99	7016.83
948.16	6979.56
948.33	6999.88
948.50	6920.91
948.67	6914.93
948.84	6875.85
949.01	6885.93
949.18	6874.54
949.35	6915.34
949.52	6798.68
949.68	6813.26
949.85	6796.72
950.02	6801.80
950.19	6740.77
950.36	6766.73
950.53	6733.89
950.70	6714.72
950.87	6671.71
951.04	6736.83
951.21	6688.91
951.38	6666.79
951.55	6657.70
951.72	6629.77
951.89	6598.88
952.06	6668.76
952.23	6594.87
952.39	6585.53
952.56	6558.74
952.73	6585.86
952.90	6529.99
953.07	6563.82
953.24	6495.75
953.41	6514.83
953.58	6459.29
953.75	6514.18
953.92	6458.39
954.09	6468.63
954.25	6406.62
954.42	6448.64
954.59	6419.64
954.76	6348.70
954.93	6360.91
955.10	6400.15
955.27	6363.12
955.44	6377.05
955.61	6323.39
955.77	6347.31
955.94	6305.78
956.11	6302.91
956.28	6307.83
956.45	6288.25
956.62	6302.17
956.79	6287.92
956.96	6255.64
957.12	6266.37
957.29	6267.28
957.46	6241.64
957.63	6227.22
957.80	6231.89
957.97	6218.37
958.14	6247.37
958.30	6160.78
958.47	6186.09
958.64	6134.32
958.81	6176.02
958.98	6106.55
959.15	6090.90
959.32	6137.27
959.48	6097.95
959.65	6057.89
959.82	6062.32
959.99	6013.00
960.16	6038.23
960.33	6027.83
960.49	5997.03
960.66	5998.58
960.83	5983.43
961.00	6000.55
961.17	5997.35
961.33	5956.64
961.50	5962.05
961.67	5928.95
961.84	5944.35
962.01	5925.67
962.18	5945.17
962.34	5871.28
962.51	5889.96
962.68	5842.69
962.85	5909.13
963.02	5835.65
963.18	5868.74
963.35	5812.38
963.52	5833.84
963.69	5851.87
963.86	5808.20
964.02	5777.65
964.19	5795.01
964.36	5790.34
964.53	5772.65
964.69	5738.82
964.86	5769.95
965.03	5696.55
965.20	5759.22
965.37	5681.64
965.53	5669.92
965.70	5648.13
965.87	5694.99
966.04	5651.57
966.20	5639.29
966.37	5616.27
966.54	5584.89
966.71	5635.76
966.87	5579.98
967.04	5597.92
967.21	5587.51
967.38	5586.20
967.54	5595.30
967.71	5584.07
967.88	5569.33
968.05	5541.97
968.21	5539.59
968.38	5513.46
968.55	5501.91
968.72	5471.27
968.88	5452.92
969.05	5494.13
969.22	5467.18
969.39	5447.92
969.55	5481.59
969.72	5416.63
969.89	5451.37
970.05	5446.53
970.22	5433.83
970.39	5432.28
970.56	5438.34
970.72	5403.11
970.89	5395.58
971.06	5382.23
971.22	5368.79
971.39	5365.35
971.56	5393.53
971.73	5322.34
971.89	5382.47
972.06	5318.49
972.23	5342.17
972.39	5297.69
972.56	5337.74
972.73	5267.62
972.89	5292.28
973.06	5304.65
973.23	5299.41
973.39	5276.96
973.56	5280.32
973.73	5255.25
973.89	5276.71
974.06	5227.65
974.23	5263.94
974.39	5233.05
974.56	5221.01
974.73	5191.93
974.89	5156.21
975.06	5157.52
975.23	5184.47
975.39	5134.59
975.56	5168.34
975.73	5141.06
975.89	5173.99
976.06	5154.90
976.23	5124.26
976.39	5145.48
976.56	5122.38
976.73	5095.84
976.89	5089.61
977.06	5079.70
977.23	5080.36
977.39	5059.71
977.56	5040.05
977.72	5028.75
977.89	5045.70
978.06	5033.17
978.22	5011.22
978.39	5002.37
978.56	5004.42
978.72	5002.70
978.89	4984.51
979.05	5006.22
979.22	4996.88
979.39	4963.29
979.55	4957.64
979.72	4960.51
979.88	4971.57
980.05	4919.71
980.22	4965.18
980.38	4947.16
980.55	4944.45
980.71	4922.58
980.88	4935.03
981.05	4932.25
981.21	4916.27
981.38	4898.41
981.54	4927.82
981.71	4880.23
981.88	4894.97
982.04	4861.96
982.21	4867.53
982.37	4836.65
982.54	4890.88
982.70	4825.18
982.87	4830.99
983.04	4798.55
983.20	4862.94
983.37	4801.09
983.53	4848.53
983.70	4797.57
983.86	4817.89
984.03	4797.82
984.20	4808.96
984.36	4796.51
984.53	4803.55
984.69	4766.61
984.86	4750.55
985.02	4757.43
985.19	4746.70
985.35	4714.42
985.52	4738.67
985.68	4720.98
985.85	4723.19
986.02	4697.38
986.18	4709.26
986.35	4694.52
986.51	4727.45
986.68	4693.04
986.84	4705.49
987.01	4687.64
987.17	4686.41
987.34	4692.63
987.50	4655.69
987.67	4639.47
987.83	4696.32
988.00	4657.98
988.16	4646.43
988.33	4645.20
988.49	4651.92
988.66	4610.63
988.82	4616.04
988.99	4583.76
989.15	4613.91
989.32	4568.44
989.48	4572.62
989.65	4556.98
989.81	4545.75
989.98	4552.72
990.14	4548.87
990.31	4546.33
990.47	4518.97
990.64	4508.81
990.80	4536.25
990.97	4504.47
991.13	4501.44
991.30	4512.66
991.46	4505.29
991.63	4497.50
991.79	4513.64
991.95	4441.63
992.12	4487.84
992.28	4469.90
992.45	4477.35
992.61	4464.24
992.78	4474.73
992.94	4433.36
993.11	4480.63
993.27	4439.59
993.44	4437.95
993.60	4422.38
993.76	4454.66
993.93	4431.72
994.09	4452.78
994.26	4407.80
994.42	4418.62
994.59	4411.41
994.75	4415.42
994.91	4376.43
995.08	4368.07
995.24	4350.21
995.41	4354.64
995.57	4352.10
995.74	4332.52
995.90	4348.57
996.06	4340.87
996.23	4331.54
996.39	4331.13
996.56	4307.70
996.72	4323.18
996.88	4327.85
997.05	4318.43
997.21	4308.03
997.38	4308.27
997.54	4279.93
997.70	4281.16
997.87	4297.95
998.03	4297.46
998.20	4248.39
998.36	4271.98
998.52	4248.22
998.69	4285.58
998.85	4245.68
999.02	4270.42
999.18	4224.80
999.34	4261.09
999.51	4217.18
999.67	4232.17
999.83	4232.91
1000.00	4227.74
1000.16	4219.39
1000.33	4205.54
1000.49	4203.58
1000.65	4225.78
1000.82	4228.07
1000.98	4201.53
1001.14	4200.47
1001.31	4202.60
1001.47	4199.81
1001.63	4183.26
1001.80	4175.40
1001.96	4162.21
1002.12	4151.40
1002.29	4168.52
1002.45	4140.75
1002.61	4137.80
1002.78	4148.53
1002.94	4126.41
1003.10	4131.33
1003.27	4104.78
1003.43	4105.28
1003.59	4108.63
1003.76	4103.97
1003.92	4096.92
1004.08	4098.80
1004.25	4113.47
1004.41	4085.86
1004.57	4080.45
1004.74	4068.99
1004.90	4115.02
1005.06	4080.13
1005.23	4078.24
1005.39	4071.20
1005.55	4072.43
1005.71	4077.34
1005.88	4062.02
1006.04	4069.40
1006.20	4075.46
1006.37	4018.11
1006.53	4060.14
1006.69	4025.08
1006.85	4051.87
1007.02	4019.59
1007.18	4039.82
1007.34	4021.88
1007.51	4035.97
1007.67	4008.61
1007.83	4014.84
1007.99	4008.69
1008.16	4020.24
1008.32	3966.75
1008.48	4006.48
1008.64	3982.23
1008.81	4004.27
1008.97	3974.62
1009.13	3981.91
1009.29	3964.29
1009.46	3971.42
1009.62	3975.11
1009.78	3959.54
1009.95	3967.82
1010.11	3969.54
1010.27	3949.55
1010.43	3933.08
1010.59	3935.46
1010.76	3932.92
1010.92	3914.24
1011.08	3921.45
1011.24	3919.40
1011.41	3943.40
1011.57	3902.69
1011.73	3920.96
1011.89	3896.47
1012.06	3904.98
1012.22	3858.21
1012.38	3898.84
1012.54	3884.01
1012.70	3888.52
1012.87	3861.65
1013.03	3875.00
1013.19	3860.42
1013.35	3879.02
1013.51	3838.22
1013.68	3876.23
1013.84	3832.00
1014.00	3881.31
1014.16	3832.65
1014.32	3861.24
1014.49	3840.84
1014.65	3871.73
1014.81	3798.00
1014.97	3846.25
1015.13	3831.59
1015.30	3836.99
1015.46	3809.47
1015.62	3840.68
1015.78	3812.99
1015.94	3802.75
1016.10	3793.98
1016.27	3791.86
1016.43	3794.15
1016.59	3796.44
1016.75	3780.63
1016.91	3790.71
1017.07	3783.91
1017.24	3791.77
1017.40	3758.92
1017.56	3776.29
1017.72	3768.59
1017.88	3758.84
1018.04	3743.69
1018.21	3771.46
1018.37	3746.64
1018.53	3772.85
1018.69	3742.38
1018.85	3737.13
1019.01	3730.01
1019.17	3731.81
1019.34	3728.37
1019.50	3737.46
1019.66	3703.71
1019.82	3719.28
1019.98	3693.63
1020.14	3736.48
1020.30	3718.87
1020.46	3722.22
1020.63	3697.24
1020.79	3700.11
1020.95	3702.07
1021.11	3711.98
1021.27	3690.52
1021.43	3704.45
1021.59	3699.29
1021.75	3683.97
1021.91	3671.35
1022.07	3650.95
1022.24	3686.43
1022.40	3676.02
1022.56	3661.69
1022.72	3691.34
1022.88	3640.06
1023.04	3682.66
1023.20	3638.59
1023.36	3652.35
1023.52	3662.67
1023.68	3629.33
1023.84	3638.09
1024.01	3644.65
1024.17	3605.65
1024.33	3634.33
1024.49	3636.54
1024.65	3598.53
1024.81	3610.24
1024.97	3631.70
1025.13	3610.73
1025.29	3641.94
1025.45	3596.07
1025.61	3612.45
1025.77	3604.26
1025.93	3614.83
1026.09	3587.80
1026.25	3632.44
1026.41	3600.90
1026.57	3592.63
1026.73	3599.18
1026.90	3586.57
1027.06	3594.43
1027.22	3601.56
1027.38	3603.61
1027.54	3603.44
1027.70	3578.78
1027.86	3589.84
1028.02	3571.90
1028.18	3583.21
1028.34	3567.73
1028.50	3595.00
1028.66	3552.41
1028.82	3599.26
1028.98	3567.64
1029.14	3546.51
1029.30	3555.44
1029.46	3571.58
1029.62	3563.38
1029.78	3557.24
1029.94	3539.71
1030.10	3572.23
1030.26	3518.74
1030.42	3534.88
1030.58	3532.34
1030.74	3556.83
1030.90	3520.70
1031.06	3523.16
1031.22	3501.70
1031.38	3535.29
1031.54	3510.14
1031.70	3510.05
1031.86	3512.35
1032.02	3506.61
1032.18	3500.88
1032.34	3498.67
1032.50	3500.06
1032.66	3530.37
1032.82	3489.17
1032.98	3491.05
1033.14	3499.57
1033.30	3509.73
1033.45	3480.15
1033.61	3518.25
1033.77	3501.37
1033.93	3505.22
1034.09	3490.97
1034.25	3497.68
1034.41	3474.09
1034.57	3470.08
1034.73	3487.53
1034.89	3481.71
1035.05	3486.05
1035.21	3477.78
1035.37	3455.17
1035.53	3477.53
1035.69	3456.81
1035.85	3490.64
1036.01	3452.55
1036.16	3470.57
1036.32	3448.62
1036.48	3470.41
1036.64	3432.23
1036.80	3477.04
1036.96	3452.30
1037.12	3449.27
1037.28	3448.78
1037.44	3435.84
1037.60	3432.48
1037.76	3440.34
1037.91	3431.74
1038.07	3442.31
1038.23	3454.51
1038.39	3442.14
1038.55	3428.05
1038.71	3452.79
1038.87	3425.68
1039.03	3463.03
1039.19	3418.80
1039.35	3428.71
1039.50	3426.91
1039.66	3431.08
1039.82	3410.52
1039.98	3434.85
1040.14	3393.73
1040.30	3420.68
1040.46	3405.94
1040.62	3405.53
1040.77	3426.58
1040.93	3425.60
1041.09	3397.09
1041.25	3403.64
1041.41	3415.52
1041.57	3409.46
1041.73	3409.46
1041.88	3409.46

