SpectraSuite Data File
++++++++++++++++++++++++++++++++++++
Date: Tue Sep 20 11:44:04 EDT 2022
User: Laboratoire
Dark Spectrum Present: No
Reference Spectrum Present: No
Number of Sampled Component Spectra: 1
Spectrometers: FLMT00174
Integration Time (usec): 15000 (FLMT00174)
Spectra Averaged: 25 (FLMT00174)
Boxcar Smoothing: 0 (FLMT00174)
Correct for Electrical Dark: No (FLMT00174)
Strobe/Lamp Enabled: No (FLMT00174)
Correct for Detector Non-linearity: No (FLMT00174)
Correct for Stray Light: No (FLMT00174)
Number of Pixels in Processed Spectrum: 3648
>>>>>Begin Processed Spectral Data<<<<<
345.74	3146.99
345.96	3146.99
346.18	3146.99
346.39	3172.47
346.61	3196.39
346.83	3200.57
347.05	3192.21
347.27	3217.93
347.49	3213.67
347.71	3214.16
347.93	3208.76
348.15	3221.78
348.36	3209.09
348.58	3213.92
348.80	3198.44
349.02	3200.16
349.24	3208.18
349.46	3291.09
349.68	3308.37
349.90	3328.69
350.11	3300.83
350.33	3324.59
350.55	3315.83
350.77	3331.23
350.99	3300.92
351.21	3339.99
351.43	3288.79
351.65	3318.86
351.86	3296.16
352.08	3320.58
352.30	3298.21
352.52	3318.53
352.74	3291.82
352.96	3305.18
353.18	3312.30
353.39	3306.16
353.61	3295.35
353.83	3317.79
354.05	3347.69
354.27	3333.03
354.49	3320.25
354.70	3319.43
354.92	3301.74
355.14	3315.91
355.36	3316.48
355.58	3301.41
355.80	3304.36
356.02	3316.32
356.23	3316.07
356.45	3303.05
356.67	3321.40
356.89	3333.44
357.11	3306.40
357.33	3328.44
357.54	3299.93
357.76	3310.42
357.98	3301.98
358.20	3322.71
358.42	3293.30
358.63	3311.24
358.85	3313.04
359.07	3328.36
359.29	3307.06
359.51	3319.92
359.73	3293.30
359.94	3328.28
360.16	3306.90
360.38	3310.17
360.60	3308.62
360.82	3327.38
361.03	3311.57
361.25	3315.42
361.47	3315.25
361.69	3332.95
361.91	3296.00
362.12	3315.74
362.34	3304.03
362.56	3340.40
362.78	3315.01
363.00	3315.25
363.21	3314.02
363.43	3330.90
363.65	3303.62
363.87	3326.23
364.09	3312.22
364.30	3327.21
364.52	3325.74
364.74	3326.47
364.96	3305.34
365.17	3304.60
365.39	3321.15
365.61	3305.09
365.83	3298.46
366.05	3315.66
366.26	3326.07
366.48	3332.86
366.70	3352.20
366.92	3320.99
367.13	3321.07
367.35	3313.94
367.57	3325.66
367.79	3329.75
368.01	3310.99
368.22	3334.91
368.44	3314.43
368.66	3322.38
368.88	3326.39
369.09	3324.75
369.31	3320.33
369.53	3328.69
369.75	3314.19
369.96	3334.75
370.18	3316.81
370.40	3333.03
370.62	3324.67
370.83	3334.50
371.05	3348.35
371.27	3337.70
371.49	3316.56
371.70	3338.35
371.92	3323.44
372.14	3335.16
372.36	3317.96
372.57	3356.21
372.79	3331.31
373.01	3326.64
373.22	3342.53
373.44	3344.66
373.66	3342.45
373.88	3343.76
374.09	3334.67
374.31	3327.05
374.53	3329.59
374.75	3345.73
374.96	3335.32
375.18	3347.20
375.40	3338.11
375.61	3356.70
375.83	3323.20
376.05	3336.14
376.27	3336.14
376.48	3342.12
376.70	3334.09
376.92	3333.19
377.13	3333.85
377.35	3329.51
377.57	3338.27
377.79	3322.13
378.00	3344.99
378.22	3363.01
378.44	3323.36
378.65	3370.06
378.87	3345.89
379.09	3360.80
379.30	3345.81
379.52	3351.21
379.74	3355.64
379.96	3357.44
380.17	3327.95
380.39	3339.91
380.61	3326.64
380.82	3375.22
381.04	3333.19
381.26	3369.56
381.47	3365.30
381.69	3374.72
381.91	3357.11
382.12	3360.80
382.34	3378.82
382.56	3367.27
382.77	3358.75
382.99	3371.61
383.21	3354.16
383.42	3387.50
383.64	3366.29
383.86	3375.63
384.07	3379.64
384.29	3373.99
384.51	3358.10
384.72	3367.84
384.94	3375.87
385.16	3389.80
385.37	3398.48
385.59	3395.78
385.81	3404.87
386.02	3386.36
386.24	3395.45
386.46	3385.46
386.67	3418.47
386.89	3434.12
387.11	3419.62
387.32	3422.57
387.54	3421.17
387.76	3433.87
387.97	3463.03
388.19	3429.04
388.40	3433.79
388.62	3446.65
388.84	3438.95
389.05	3461.89
389.27	3424.04
389.49	3466.47
389.70	3421.83
389.92	3467.70
390.14	3452.38
390.35	3464.59
390.57	3455.17
390.78	3470.24
391.00	3455.17
391.22	3462.79
391.43	3467.95
391.65	3494.65
391.86	3487.53
392.08	3491.54
392.30	3479.42
392.51	3488.59
392.73	3503.50
392.95	3487.12
393.16	3454.10
393.38	3496.78
393.59	3464.75
393.81	3496.21
394.03	3498.09
394.24	3494.33
394.46	3477.21
394.67	3487.04
394.89	3487.12
395.11	3505.63
395.32	3509.48
395.54	3504.81
395.75	3499.65
395.97	3501.45
396.19	3500.06
396.40	3512.68
396.62	3514.15
396.83	3509.40
397.05	3521.69
397.26	3531.60
397.48	3500.72
397.70	3528.57
397.91	3529.96
398.13	3522.18
398.34	3531.27
398.56	3542.33
398.78	3549.38
398.99	3587.14
399.21	3539.05
399.42	3561.25
399.64	3517.92
399.85	3560.11
400.07	3568.54
400.29	3589.68
400.50	3562.40
400.72	3601.31
400.93	3580.18
401.15	3585.67
401.36	3597.46
401.58	3631.79
401.79	3605.41
402.01	3617.94
402.23	3595.09
402.44	3655.71
402.66	3641.62
402.87	3656.85
403.09	3649.73
403.30	3661.69
403.52	3666.36
403.73	3646.37
403.95	3677.01
404.16	3695.60
404.38	3680.53
404.60	3702.32
404.81	3711.49
405.03	3734.51
405.24	3762.69
405.46	3757.29
405.67	3737.62
405.89	3768.75
406.10	3776.70
406.32	3768.43
406.53	3824.05
406.75	3840.19
406.96	3833.47
407.18	3830.85
407.39	3836.66
407.61	3844.61
407.82	3862.22
408.04	3895.97
408.25	3905.07
408.47	3900.40
408.68	3910.88
408.90	3918.58
409.12	3952.83
409.33	3956.92
409.55	3930.79
409.76	3965.11
409.98	3956.27
410.19	3971.67
410.41	4012.05
410.62	4017.46
410.84	3993.95
411.05	4008.28
411.27	4050.31
411.48	4033.11
411.70	4045.80
411.91	4048.34
412.12	4031.30
412.34	4040.07
412.55	4071.44
412.77	4057.76
412.98	4078.41
413.20	4061.04
413.41	4071.03
413.63	4062.92
413.84	4068.58
414.06	4098.89
414.27	4094.22
414.49	4083.65
414.70	4090.86
414.92	4104.54
415.13	4102.57
415.35	4105.69
415.56	4106.91
415.78	4086.11
415.99	4100.77
416.21	4102.33
416.42	4119.53
416.63	4121.33
416.85	4130.34
417.06	4113.80
417.28	4105.60
417.49	4146.32
417.71	4123.13
417.92	4097.33
418.14	4116.09
418.35	4141.89
418.57	4135.91
418.78	4143.78
418.99	4122.15
419.21	4168.19
419.42	4112.32
419.64	4153.12
419.85	4151.72
420.07	4189.24
420.28	4172.53
420.50	4173.02
420.71	4186.70
420.92	4183.10
421.14	4212.43
421.35	4185.15
421.57	4199.81
421.78	4206.69
422.00	4225.70
422.21	4228.24
422.42	4241.59
422.64	4229.55
422.85	4268.70
423.07	4293.12
423.28	4251.50
423.50	4294.34
423.71	4305.40
423.92	4354.64
424.14	4325.97
424.35	4355.29
424.57	4354.39
424.78	4406.33
424.99	4411.41
425.21	4399.86
425.42	4434.02
425.64	4430.25
425.85	4445.48
426.06	4453.35
426.28	4463.10
426.49	4513.23
426.71	4536.25
426.92	4556.40
427.13	4582.37
427.35	4620.46
427.56	4639.88
427.78	4621.28
427.99	4656.59
428.20	4738.43
428.42	4729.82
428.63	4759.56
428.84	4713.77
429.06	4761.36
429.27	4806.25
429.49	4842.95
429.70	4893.25
429.91	4885.39
430.13	4958.38
430.34	4932.33
430.56	4994.01
430.77	5025.55
430.98	4997.78
431.20	5101.16
431.41	5120.09
431.62	5146.71
431.84	5149.41
432.05	5209.05
432.26	5232.56
432.48	5239.77
432.69	5329.06
432.91	5314.64
433.12	5352.00
433.33	5374.44
433.55	5472.09
433.76	5489.79
433.97	5462.01
434.19	5483.23
434.40	5583.25
434.61	5599.64
434.83	5630.19
435.04	5656.57
435.25	5695.48
435.47	5713.34
435.68	5686.39
435.89	5788.05
436.11	5794.77
436.32	5814.43
436.53	5844.98
436.75	5829.67
436.96	5854.57
437.17	5849.57
437.39	5872.35
437.60	5919.61
437.81	5956.80
438.03	5992.36
438.24	6004.97
438.45	6095.74
438.67	6021.11
438.88	6065.59
439.09	6137.27
439.31	6100.65
439.52	6122.12
439.73	6113.19
439.94	6066.08
440.16	6118.43
440.37	6103.44
440.58	6165.37
440.80	6157.50
441.01	6128.26
441.22	6242.78
441.44	6215.34
441.65	6153.08
441.86	6189.45
442.08	6215.42
442.29	6183.55
442.50	6218.21
442.71	6185.28
442.93	6222.38
443.14	6181.10
443.35	6248.35
443.57	6176.67
443.78	6259.49
443.99	6251.30
444.20	6213.70
444.42	6223.37
444.63	6243.19
444.84	6233.12
445.06	6296.68
445.27	6196.01
445.48	6195.60
445.69	6236.23
445.91	6216.08
446.12	6180.28
446.33	6212.14
446.54	6296.36
446.76	6230.99
446.97	6250.24
447.18	6215.26
447.39	6266.95
447.61	6276.12
447.82	6280.14
448.03	6240.90
448.25	6273.99
448.46	6328.63
448.67	6338.87
448.88	6274.65
449.10	6348.29
449.31	6346.66
449.52	6327.49
449.73	6348.13
449.95	6432.59
450.16	6351.00
450.37	6450.28
450.58	6552.44
450.79	6410.72
451.01	6456.84
451.22	6435.70
451.43	6457.90
451.64	6518.52
451.86	6522.04
452.07	6535.72
452.28	6597.08
452.49	6685.06
452.71	6598.88
452.92	6580.70
453.13	6675.56
453.34	6678.02
453.55	6758.62
453.77	6826.45
453.98	6810.48
454.19	6756.09
454.40	6832.19
454.62	6900.43
454.83	6853.24
455.04	6956.95
455.25	6933.36
455.46	7108.66
455.68	7016.18
455.89	7060.00
456.10	7068.77
456.31	7155.68
456.52	7205.25
456.74	7210.65
456.95	7371.13
457.16	7337.63
457.37	7426.34
457.58	7416.10
457.80	7436.09
458.01	7460.34
458.22	7777.86
458.43	7653.18
458.64	7745.99
458.86	7680.95
459.07	7809.15
459.28	7785.72
459.49	7933.83
459.70	8151.00
459.91	8056.38
460.13	8117.33
460.34	8195.73
460.55	8212.52
460.76	8389.22
460.97	8433.45
461.19	8452.46
461.40	8681.91
461.61	8615.23
461.82	8661.76
462.03	8804.22
462.24	8842.88
462.46	8897.03
462.67	8934.63
462.88	9078.73
463.09	9084.95
463.30	9297.37
463.51	9279.51
463.72	9499.63
463.94	9527.72
464.15	9590.31
464.36	9548.20
464.57	9855.64
464.78	9884.32
464.99	9946.74
465.20	9959.35
465.42	10226.98
465.63	10200.03
465.84	10233.21
466.05	10408.02
466.26	10540.57
466.47	10643.62
466.68	10630.02
466.90	10885.12
467.11	10852.60
467.32	11018.40
467.53	11196.25
467.74	11027.25
467.95	11178.80
468.16	11450.52
468.37	11563.16
468.59	11601.50
468.80	11831.53
469.01	11659.91
469.22	11886.16
469.43	12192.87
469.64	12004.78
469.85	12218.84
470.06	12268.56
470.28	12496.05
470.49	12292.15
470.70	12511.94
470.91	12794.81
471.12	12607.46
471.33	12909.58
471.54	12842.89
471.75	12909.00
471.96	13239.30
472.17	13184.66
472.39	13494.64
472.60	13213.66
472.81	13601.79
473.02	13427.47
473.23	13697.14
473.44	13726.55
473.65	13699.35
473.86	13806.67
474.07	13838.12
474.28	13911.77
474.49	14262.30
474.71	14083.64
474.92	14299.33
475.13	14158.59
475.34	14266.40
475.55	14252.47
475.76	14333.08
475.97	14624.95
476.18	14552.62
476.39	14709.08
476.60	14823.94
476.81	14801.74
477.02	14925.68
477.23	14899.63
477.44	14894.96
477.65	15059.94
477.87	15230.01
478.08	15230.42
478.29	15202.56
478.50	15450.61
478.71	15296.69
478.92	15431.28
479.13	15390.08
479.34	15484.86
479.55	15586.43
479.76	15528.68
479.97	15511.89
480.18	15920.42
480.39	15578.00
480.60	15909.03
480.81	15880.44
481.02	15874.54
481.23	15866.76
481.44	16105.31
481.65	16199.11
481.86	16299.87
482.07	15981.04
482.28	16594.20
482.49	16301.42
482.71	16350.90
482.92	16517.52
483.13	16647.12
483.34	16512.77
483.55	16554.63
483.76	16578.96
483.97	16790.97
484.18	16726.99
484.39	16851.34
484.60	16718.47
484.81	17016.24
485.02	16867.40
485.23	17091.04
485.44	17137.07
485.65	17305.99
485.86	17173.77
486.07	17429.28
486.28	17344.98
486.49	17503.17
486.70	17612.12
486.91	17786.12
487.12	17649.48
487.33	17604.42
487.54	17989.85
487.75	17988.05
487.96	18032.45
488.17	17988.46
488.38	18200.71
488.59	18243.31
488.80	18360.94
489.01	18371.84
489.22	18614.48
489.43	18527.65
489.64	18431.23
489.85	18948.30
490.06	18626.11
490.26	18972.22
490.47	18904.55
490.68	19154.16
490.89	19355.11
491.10	19136.14
491.31	19479.13
491.52	19700.23
491.73	19628.88
491.94	19649.85
492.15	19842.77
492.36	20002.02
492.57	20040.36
492.78	20053.63
492.99	20203.13
493.20	20473.63
493.41	20492.38
493.62	20587.90
493.83	20641.97
494.04	20846.44
494.25	21012.90
494.46	21168.05
494.67	21037.39
494.88	21335.74
495.08	21470.58
495.29	21574.29
495.50	21864.61
495.71	21844.37
495.92	22138.46
496.13	22250.85
496.34	22195.80
496.55	22438.20
496.76	22864.83
496.97	22605.23
497.18	22984.35
497.39	22975.75
497.60	23435.89
497.81	23211.60
498.02	23525.43
498.22	23464.72
498.43	23960.50
498.64	24127.86
498.85	24150.63
499.06	24319.55
499.27	24761.33
499.48	24354.53
499.69	24877.17
499.90	25085.49
500.11	25360.57
500.32	25692.10
500.52	25519.74
500.73	26118.73
500.94	26278.72
501.15	26473.60
501.36	26554.04
501.57	26482.04
501.78	26885.00
501.99	27264.20
502.20	27368.56
502.41	27456.05
502.61	27575.33
502.82	28004.25
503.03	27915.29
503.24	28482.82
503.45	28394.43
503.66	28938.04
503.87	28964.09
504.08	29354.19
504.28	29370.90
504.49	29554.73
504.70	29838.00
504.91	30128.57
505.12	30052.47
505.33	30673.08
505.54	30742.71
505.75	30979.05
505.95	31349.32
506.16	31336.71
506.37	31317.21
506.58	32021.63
506.79	31722.22
507.00	32398.29
507.21	32241.42
507.41	32454.73
507.62	32722.94
507.83	33315.37
508.04	32978.11
508.25	33584.48
508.46	33518.12
508.67	34069.03
508.87	33893.56
509.08	34572.01
509.29	34429.96
509.50	34797.69
509.71	34927.37
509.92	35224.41
510.12	35129.30
510.33	35512.19
510.54	35517.59
510.75	35861.00
510.96	36115.85
511.17	36406.90
511.37	36361.11
511.58	36720.82
511.79	36530.93
512.00	36502.50
512.21	37129.43
512.42	37143.11
512.62	37342.42
512.83	37650.59
513.04	37477.09
513.25	37953.20
513.46	37142.21
513.66	38258.60
513.87	38049.95
514.08	38409.65
514.29	38202.65
514.50	38201.50
514.71	38584.88
514.91	38442.42
515.12	38470.77
515.33	38912.55
515.54	38622.97
515.75	39081.80
515.95	38783.04
516.16	38820.72
516.37	39286.43
516.58	39336.07
516.78	39092.12
516.99	39316.49
517.20	39219.01
517.41	39204.68
517.62	39356.14
517.82	39245.47
518.03	39814.64
518.24	40184.92
518.45	39418.73
518.66	39835.12
518.86	39485.74
519.07	39886.40
519.28	39252.76
519.49	39854.37
519.69	39890.25
519.90	39809.07
520.11	39849.87
520.32	39638.93
520.52	39972.66
520.73	39495.16
520.94	39909.50
521.15	39746.73
521.36	39269.80
521.56	39992.65
521.77	39175.27
521.98	39676.69
522.19	39184.36
522.39	39470.01
522.60	39263.33
522.81	39360.40
523.02	38977.51
523.22	39300.52
523.43	39329.60
523.64	39003.40
523.84	39051.24
524.05	39297.08
524.26	39139.06
524.47	38819.41
524.67	38899.04
524.88	38992.67
525.09	39247.85
525.30	38765.75
525.50	38678.18
525.71	38623.22
525.92	38593.32
526.13	38720.45
526.33	38480.02
526.54	38179.30
526.75	38332.16
526.95	38659.26
527.16	37984.91
527.37	38343.96
527.58	38413.01
527.78	38220.34
527.99	38394.99
528.20	38453.97
528.40	37994.82
528.61	37872.27
528.82	38168.40
529.03	37970.16
529.23	37809.52
529.44	38057.08
529.65	37963.11
529.85	37862.93
530.06	37762.33
530.27	37762.17
530.47	37305.55
530.68	37945.09
530.89	37185.54
531.09	37728.66
531.30	37573.35
531.51	37173.25
531.72	37648.96
531.92	37562.37
532.13	37668.86
532.34	37388.54
532.54	37341.76
532.75	37393.62
532.96	37286.71
533.16	37483.32
533.37	37538.94
533.58	37299.82
533.78	37568.27
533.99	37584.08
534.20	37087.40
534.40	37319.72
534.61	37511.91
534.82	37427.78
535.02	37522.72
535.23	37510.51
535.44	37541.32
535.64	37432.53
535.85	37549.92
536.06	37488.48
536.26	37448.58
536.47	37473.08
536.68	37942.47
536.88	37378.46
537.09	37909.46
537.29	37451.78
537.50	38190.60
537.71	37750.62
537.91	37915.93
538.12	37974.26
538.33	37696.63
538.53	37935.84
538.74	38007.92
538.95	38035.53
539.15	37917.16
539.36	38255.16
539.56	38464.29
539.77	38060.19
539.98	38198.39
540.18	38494.69
540.39	38271.21
540.60	38529.09
540.80	38784.27
541.01	38729.71
541.21	38763.30
541.42	38944.83
541.63	38861.35
541.83	39110.80
542.04	39233.02
542.25	39128.25
542.45	39357.04
542.66	39332.22
542.86	39649.41
543.07	38855.62
543.28	39802.93
543.48	39669.89
543.69	39933.42
543.89	39885.42
544.10	40424.61
544.31	40272.40
544.51	40230.87
544.72	40418.63
544.92	40369.23
545.13	40905.06
545.33	40750.07
545.54	40640.14
545.75	41087.91
545.95	40883.35
546.16	40998.94
546.36	41634.55
546.57	41061.61
546.78	40595.82
546.98	41227.41
547.19	40707.97
547.39	41594.25
547.60	41976.40
547.80	42561.54
548.01	42754.87
548.22	42479.38
548.42	42795.91
548.63	43046.58
548.83	42971.79
549.04	43369.83
549.24	43198.13
549.45	43671.21
549.65	44098.17
549.86	43604.04
550.07	44068.27
550.27	44458.29
550.48	44595.83
550.68	44571.99
550.89	44614.67
551.09	44939.64
551.30	44867.47
551.50	45437.87
551.71	45358.00
551.91	45536.01
552.12	45776.28
552.33	46106.58
552.53	45827.64
552.74	46683.04
552.94	46856.95
553.15	46741.28
553.35	47183.97
553.56	46915.36
553.76	47647.39
553.97	47383.44
554.17	47690.72
554.38	48476.32
554.58	48003.65
554.79	48862.57
554.99	48419.47
555.20	48793.67
555.40	49292.23
555.61	49083.67
555.81	48957.51
556.02	50073.74
556.22	49978.22
556.43	49895.81
556.63	50170.24
556.84	50189.49
557.04	50930.03
557.25	50479.40
557.45	51153.34
557.66	51379.03
557.86	51352.49
558.07	52093.69
558.27	51764.87
558.48	51959.83
558.68	52295.37
558.89	52547.03
559.09	52644.51
559.30	52570.46
559.50	52987.34
559.71	52689.81
559.91	53699.30
560.12	53453.30
560.32	53704.46
560.53	54090.62
560.73	53967.58
560.94	54645.05
561.14	54187.94
561.35	55084.38
561.55	54901.54
561.76	55255.02
561.96	54795.29
562.17	55506.59
562.37	55789.95
562.57	55553.77
562.78	55618.74
562.98	56185.78
563.19	56295.06
563.39	56597.83
563.60	56711.86
563.80	56267.53
564.01	57167.25
564.21	56824.99
564.42	56909.94
564.62	57217.13
564.82	57668.01
565.03	57162.49
565.23	57384.58
565.44	57590.36
565.64	57480.26
565.85	58000.52
566.05	57793.60
566.25	58319.43
566.46	57908.45
566.66	58401.19
566.87	58437.07
567.07	58498.92
567.28	58759.91
567.48	59154.02
567.68	58379.81
567.89	59498.08
568.09	58957.42
568.30	59005.09
568.50	59427.88
568.71	59208.99
568.91	59438.61
569.11	59121.83
569.32	59226.52
569.52	59386.26
569.73	58816.19
569.93	59572.30
570.13	59410.18
570.34	59186.05
570.54	59934.13
570.75	59560.50
570.95	59545.10
571.15	59316.14
571.36	59929.63
571.56	59266.74
571.77	59218.65
571.97	58847.81
572.17	59641.93
572.38	59485.71
572.58	59721.39
572.79	59425.25
572.99	59529.78
573.19	59476.04
573.40	59268.22
573.60	59501.19
573.81	59148.12
574.01	59421.32
574.21	59264.04
574.42	59281.57
574.62	58954.14
574.82	59379.71
575.03	58884.10
575.23	59383.97
575.43	58819.22
575.64	58753.60
575.84	59121.25
576.05	58562.73
576.25	58679.22
576.45	58434.77
576.66	58986.09
576.86	58310.75
577.06	58712.64
577.27	58426.17
577.47	58421.01
577.67	58195.00
577.88	57628.94
578.08	58192.70
578.28	58156.33
578.49	57867.32
578.69	57937.28
578.89	57414.80
579.10	57580.77
579.30	58175.42
579.50	57507.95
579.71	56936.89
579.91	57474.69
580.11	56890.36
580.32	56786.49
580.52	56612.66
580.72	57286.76
580.93	56407.94
581.13	56410.07
581.33	56889.13
581.54	56145.15
581.74	56054.46
581.94	56070.27
582.15	56267.94
582.35	55751.77
582.55	55840.49
582.76	55412.63
582.96	55775.20
583.16	55198.33
583.37	55443.27
583.57	54954.21
583.77	55488.57
583.97	54322.53
584.18	55394.11
584.38	54974.69
584.58	54494.73
584.79	54733.03
584.99	54542.73
585.19	54325.16
585.40	54126.26
585.60	54309.76
585.80	53659.40
586.00	53808.49
586.21	53706.34
586.41	53703.64
586.61	53849.04
586.82	53593.62
587.02	53275.94
587.22	53559.87
587.42	52851.19
587.63	53364.41
587.83	52480.92
588.03	52802.04
588.23	52162.99
588.44	52502.14
588.64	52133.26
588.84	52293.41
589.05	52414.07
589.25	52332.16
589.45	52236.39
589.65	51869.48
589.86	52068.95
590.06	51967.29
590.26	51597.43
590.46	51821.56
590.67	51054.88
590.87	51750.70
591.07	51844.82
591.27	51096.33
591.48	51507.32
591.68	50699.19
591.88	51585.14
592.08	50599.57
592.29	50991.23
592.49	50765.54
592.69	50916.93
592.89	50564.92
593.10	50556.16
593.30	50289.92
593.50	50761.20
593.70	49665.54
593.90	50397.23
594.11	50154.92
594.31	50141.89
594.51	50431.07
594.71	50415.34
594.92	50329.57
595.12	50010.58
595.32	50022.13
595.52	50148.69
595.72	49412.57
595.93	49998.37
596.13	49666.93
596.33	49297.97
596.53	49632.69
596.73	49606.47
596.94	49377.76
597.14	49674.87
597.34	49398.97
597.54	49668.16
597.74	49209.08
597.95	49324.43
598.15	49357.36
598.35	49425.35
598.55	49459.18
598.75	49212.61
598.96	49657.10
599.16	49180.66
599.36	49153.46
599.56	49097.43
599.76	48917.29
599.97	49437.15
600.17	49144.70
600.37	49296.57
600.57	48595.92
600.77	49480.48
600.97	49000.03
601.18	49630.15
601.38	49152.56
601.58	49338.60
601.78	49183.61
601.98	48960.46
602.18	49289.20
602.39	49692.73
602.59	49392.91
602.79	49194.18
602.99	49183.44
603.19	49252.26
603.39	49048.61
603.60	49173.70
603.80	49153.22
604.00	49095.05
604.20	49230.14
604.40	49446.40
604.60	49243.41
604.80	49297.07
605.01	49485.89
605.21	49378.74
605.41	49273.80
605.61	49055.32
605.81	49443.13
606.01	49672.34
606.21	49286.33
606.42	49730.83
606.62	49493.26
606.82	50009.19
607.02	49698.71
607.22	49923.91
607.42	50005.74
607.62	49410.85
607.82	49776.70
608.03	49725.09
608.23	49565.35
608.43	49566.82
608.63	50047.03
608.83	49968.06
609.03	49972.81
609.23	50211.03
609.43	50382.00
609.63	50254.20
609.84	50134.77
610.04	50736.05
610.24	50776.68
610.44	50902.43
610.64	50584.01
610.84	50901.36
611.04	51354.05
611.24	51009.82
611.44	50455.56
611.64	50994.50
611.85	50982.95
612.05	51041.61
612.25	51185.70
612.45	51051.60
612.65	51393.37
612.85	51527.55
613.05	51365.35
613.25	51919.12
613.45	51825.41
613.65	51987.44
613.85	51570.56
614.05	52111.88
614.25	52334.37
614.46	52194.70
614.66	52020.54
614.86	51946.07
615.06	52297.42
615.26	52689.65
615.46	52087.14
615.66	52878.55
615.86	52848.08
616.06	52649.92
616.26	52722.74
616.46	53462.31
616.66	52951.62
616.86	53637.94
617.06	53263.08
617.26	53851.34
617.46	53645.80
617.66	53482.29
617.86	53515.39
618.07	53872.72
618.27	53936.21
618.47	54094.31
618.67	54239.80
618.87	54431.49
619.07	54172.79
619.27	54151.73
619.47	54407.65
619.67	54865.08
619.87	54528.89
620.07	54894.90
620.27	54950.77
620.47	54807.08
620.67	55158.68
620.87	55269.11
621.07	55747.10
621.27	55642.82
621.47	55436.71
621.67	55811.82
621.87	55557.95
622.07	56085.34
622.27	56207.49
622.47	55938.87
622.67	56247.13
622.87	55960.75
623.07	56590.05
623.27	57117.36
623.47	56210.35
623.67	56864.31
623.87	57361.23
624.07	57212.63
624.27	56964.17
624.47	57351.15
624.67	57382.28
624.87	57717.49
625.07	57383.27
625.27	58060.90
625.47	57752.31
625.67	57850.37
625.87	58201.80
626.07	58139.87
626.27	58502.44
626.47	58479.17
626.67	58498.02
626.87	58327.62
627.07	58940.29
627.27	58921.04
627.47	59178.51
627.67	58968.97
627.87	58965.03
628.07	59590.81
628.27	59399.37
628.47	59345.30
628.67	60124.02
628.86	60191.19
629.06	59861.88
629.26	59804.95
629.46	60362.98
629.66	60191.93
629.86	59784.06
630.06	60449.32
630.26	60402.30
630.46	60952.55
630.66	60473.90
630.86	60724.08
631.06	60754.88
631.26	60575.31
631.46	61203.55
631.66	61157.92
631.86	60891.44
632.06	61518.03
632.26	61292.84
632.45	61463.88
632.65	61602.57
632.85	61862.42
633.05	61770.10
633.25	61836.70
633.45	61457.58
633.65	61724.22
633.85	62371.71
634.05	61387.54
634.25	61893.96
634.45	61984.31
634.65	62598.87
634.84	62218.11
635.04	62475.17
635.24	62101.95
635.44	62569.13
635.64	62256.94
635.84	62576.83
636.04	62395.38
636.24	62497.53
636.44	62743.95
636.64	62220.65
636.84	63272.24
637.03	62630.00
637.23	62990.69
637.43	63087.92
637.63	62758.94
637.83	63078.91
638.03	63080.06
638.23	62655.80
638.43	63261.02
638.62	63540.44
638.82	62492.29
639.02	63427.97
639.22	63056.22
639.42	63388.40
639.62	62909.83
639.82	63119.13
640.02	63323.19
640.21	63444.19
640.41	62797.19
640.61	63434.19
640.81	63201.46
641.01	63130.28
641.21	63141.25
641.41	63847.23
641.61	63218.50
641.80	63150.51
642.00	63561.41
642.20	63623.75
642.40	62832.01
642.60	63242.50
642.80	63478.76
642.99	62969.63
643.19	63473.11
643.39	62849.70
643.59	63366.04
643.79	63080.47
643.99	63336.71
644.19	63050.40
644.38	62605.91
644.58	62948.09
644.78	62678.00
644.98	62604.68
645.18	62855.03
645.38	63116.92
645.57	62663.91
645.77	62803.91
645.97	62578.80
646.17	62869.12
646.37	62597.64
646.56	62358.27
646.76	62547.91
646.96	62485.41
647.16	62080.81
647.36	62333.62
647.55	61940.98
647.75	62110.39
647.95	61767.15
648.15	61955.07
648.35	61903.79
648.55	62071.39
648.74	61770.42
648.94	61792.30
649.14	61979.73
649.34	61396.71
649.54	61288.33
649.73	61465.77
649.93	60995.14
650.13	61221.98
650.33	60892.75
650.52	61333.31
650.72	61419.73
650.92	60937.88
651.12	60621.10
651.32	60886.11
651.51	60990.07
651.71	60815.17
651.91	60485.04
652.11	60081.26
652.30	59913.00
652.50	60277.62
652.70	60187.84
652.90	59606.21
653.10	59909.48
653.29	59772.75
653.49	60019.00
653.69	59431.23
653.89	59449.58
654.08	59253.14
654.28	59603.10
654.48	59187.28
654.68	59383.48
654.87	58992.48
655.07	58737.55
655.27	59112.16
655.47	58570.43
655.66	58544.87
655.86	58273.64
656.06	58677.66
656.26	57728.14
656.45	57988.32
656.65	57758.70
656.85	57496.64
657.04	57146.27
657.24	57119.57
657.44	57031.34
657.64	57628.94
657.83	56556.62
658.03	57222.05
658.23	56909.37
658.43	56647.39
658.62	56674.50
658.82	56405.65
659.02	56300.71
659.21	56421.21
659.41	55966.56
659.61	56397.29
659.81	55982.29
660.00	55537.80
660.20	55585.80
660.40	55262.80
660.59	55257.64
660.79	54719.19
660.99	55022.20
661.19	54954.05
661.38	54713.62
661.58	53928.59
661.78	54211.86
661.97	53881.73
662.17	54523.97
662.37	53743.45
662.56	53741.49
662.76	53714.62
662.96	53711.99
663.15	53680.62
663.35	53457.06
663.55	53188.53
663.74	52910.50
663.94	53176.00
664.14	52461.75
664.33	52801.71
664.53	52620.67
664.73	52928.61
664.93	52005.95
665.12	52528.51
665.32	52070.42
665.52	52170.12
665.71	51811.32
665.91	51859.65
666.10	51416.14
666.30	51719.65
666.50	51106.32
666.69	51080.27
666.89	51352.24
667.09	51613.89
667.28	51012.61
667.48	50799.86
667.68	50927.58
667.87	50731.79
668.07	50390.60
668.27	50798.72
668.46	50652.49
668.66	50377.90
668.86	50619.81
669.05	50047.20
669.25	50240.61
669.44	49731.81
669.64	49678.15
669.84	49709.94
670.03	50044.74
670.23	49548.15
670.43	49447.47
670.62	49332.37
670.82	49161.90
671.01	49335.08
671.21	48797.77
671.41	48900.58
671.60	49051.80
671.80	49218.34
672.00	48721.50
672.19	48904.02
672.39	48646.96
672.58	48432.74
672.78	48228.03
672.98	48521.38
673.17	48311.42
673.37	47491.82
673.56	47749.13
673.76	47827.44
673.96	47860.95
674.15	47582.01
674.35	47637.06
674.54	47376.15
674.74	47320.69
674.94	47242.22
675.13	47391.23
675.33	46918.31
675.52	47428.33
675.72	47190.93
675.91	47125.24
676.11	47240.74
676.31	46671.24
676.50	46828.69
676.70	46595.14
676.89	46737.35
677.09	46792.97
677.28	46617.42
677.48	45907.51
677.68	46373.14
677.87	45987.47
678.07	45913.49
678.26	45963.79
678.46	46042.43
678.65	45808.47
678.85	46099.78
679.04	45544.70
679.24	45815.85
679.44	45671.01
679.63	45919.88
679.83	45577.79
680.02	45692.89
680.22	45171.15
680.41	45342.36
680.61	45029.92
680.80	44942.59
681.00	45026.56
681.19	44980.19
681.39	44860.18
681.59	44720.10
681.78	44617.21
681.98	45012.47
682.17	44347.70
682.37	44632.86
682.56	44311.90
682.76	44714.61
682.95	44404.55
683.15	44402.09
683.34	44299.04
683.54	44359.33
683.73	44459.76
683.93	44048.53
684.12	44482.05
684.32	44565.52
684.51	43892.72
684.71	44198.11
684.90	44012.90
685.10	43825.55
685.29	43676.54
685.49	43887.07
685.68	43688.91
685.88	43672.93
686.07	43452.41
686.27	43891.66
686.46	43657.29
686.66	43522.04
686.85	43887.48
687.05	43621.98
687.24	43485.67
687.44	43686.20
687.63	43464.53
687.83	42885.94
688.02	43324.70
688.22	43495.74
688.41	43259.00
688.61	43308.23
688.80	43442.00
689.00	43207.55
689.19	43034.05
689.39	43522.94
689.58	43351.81
689.77	43265.06
689.97	43228.52
690.16	43019.96
690.36	42581.86
690.55	42487.08
690.75	43179.13
690.94	42722.10
691.14	42954.18
691.33	42427.60
691.53	42879.55
691.72	42680.24
691.91	42688.84
692.11	42609.46
692.30	42752.82
692.50	42810.82
692.69	42517.63
692.89	42670.74
693.08	42619.54
693.28	42541.55
693.47	42667.46
693.66	42514.85
693.86	42485.93
694.05	42453.08
694.25	42456.85
694.44	42729.56
694.64	42557.12
694.83	42514.11
695.02	42601.44
695.22	42662.63
695.41	42324.63
695.61	42325.12
695.80	42267.95
695.99	42332.01
696.19	42395.98
696.38	42374.69
696.58	42070.85
696.77	42706.62
696.96	42594.23
697.16	42488.96
697.35	42394.35
697.55	42348.06
697.74	42184.06
697.93	42680.00
698.13	42118.93
698.32	42415.97
698.52	42237.96
698.71	41839.84
698.90	42625.60
699.10	42147.61
699.29	42204.05
699.49	42615.12
699.68	42259.02
699.87	42323.40
700.07	42559.74
700.26	42328.07
700.45	42359.12
700.65	42071.75
700.84	42433.26
701.04	42060.36
701.23	42399.51
701.42	42292.52
701.62	42152.11
701.81	42312.59
702.00	42169.64
702.20	41944.94
702.39	42318.98
702.58	42411.06
702.78	42228.95
702.97	42303.25
703.17	42331.92
703.36	42366.00
703.55	42165.06
703.75	42149.82
703.94	42362.32
704.13	42051.43
704.33	42154.73
704.52	42518.37
704.71	42406.55
704.91	42482.49
705.10	42223.22
705.29	42523.29
705.49	42608.15
705.68	42618.56
705.87	42648.21
706.07	42254.76
706.26	42722.76
706.45	42287.52
706.65	42041.19
706.84	42640.27
707.03	42928.46
707.23	42289.90
707.42	42248.94
707.61	42703.83
707.80	42307.51
708.00	42464.30
708.19	42306.04
708.38	42707.93
708.58	42046.11
708.77	42753.31
708.96	42283.43
709.16	42347.32
709.35	43156.03
709.54	42785.92
709.74	42651.49
709.93	42465.70
710.12	43206.98
710.31	43337.80
710.51	42826.14
710.70	42883.89
710.89	42944.18
711.09	42480.52
711.28	42542.54
711.47	42883.32
711.66	42817.05
711.86	42804.35
712.05	42837.85
712.24	43208.29
712.43	42771.25
712.63	42482.57
712.82	43003.17
713.01	42788.62
713.21	42544.67
713.40	42722.51
713.59	43174.46
713.78	42703.26
713.98	43133.74
714.17	42944.51
714.36	43016.68
714.55	42581.69
714.75	42828.60
714.94	42892.17
715.13	43158.98
715.32	42638.46
715.52	42944.68
715.71	42663.69
715.90	42773.06
716.09	42682.45
716.29	43111.46
716.48	42925.26
716.67	42453.08
716.86	42943.53
717.06	43017.50
717.25	43258.83
717.44	43482.31
717.63	43453.80
717.82	42945.58
718.02	43099.42
718.21	43324.53
718.40	43425.70
718.59	43291.60
718.79	42944.51
718.98	43009.72
719.17	43303.07
719.36	43520.40
719.55	43273.01
719.75	43178.47
719.94	43132.52
720.13	43380.81
720.32	43185.68
720.51	42888.23
720.71	42859.40
720.90	42572.68
721.09	43005.71
721.28	42847.44
721.47	43447.90
721.67	43162.91
721.86	43325.35
722.05	43378.11
722.24	42976.87
722.43	43452.98
722.63	43108.84
722.82	43144.64
723.01	43260.72
723.20	42872.34
723.39	42987.52
723.58	43358.12
723.78	42699.66
723.97	43401.13
724.16	42853.25
724.35	43122.36
724.54	42777.48
724.73	43265.22
724.93	43027.58
725.12	43386.55
725.31	42673.61
725.50	43124.16
725.69	43277.68
725.88	43132.93
726.08	42639.36
726.27	43168.40
726.46	42419.58
726.65	43316.83
726.84	42621.92
727.03	42872.83
727.23	43302.82
727.42	42844.57
727.61	42916.58
727.80	42738.40
727.99	42919.53
728.18	43058.87
728.37	42844.24
728.56	42731.61
728.76	42677.13
728.95	42935.01
729.14	42774.12
729.33	42634.70
729.52	42731.28
729.71	42657.30
729.90	42543.44
730.09	42332.25
730.29	42671.97
730.48	42141.30
730.67	42793.04
730.86	42303.99
731.05	42825.73
731.24	42511.49
731.43	42647.47
731.62	42430.64
731.81	42289.24
732.01	42875.45
732.20	42343.88
732.39	42615.03
732.58	42454.06
732.77	41796.91
732.96	42386.56
733.15	42495.35
733.34	42146.13
733.53	42207.82
733.72	42315.87
733.92	42254.84
734.11	42086.90
734.30	42039.15
734.49	42537.87
734.68	42253.94
734.87	42156.78
735.06	42114.59
735.25	42163.66
735.44	41862.20
735.63	42020.14
735.82	41951.98
736.01	41853.68
736.20	41806.01
736.40	42093.87
736.59	41827.14
736.78	42058.23
736.97	41537.48
737.16	41639.38
737.35	41784.13
737.54	41780.12
737.73	41609.48
737.92	41768.16
738.11	41801.09
738.30	41531.17
738.49	41547.55
738.68	41462.77
738.87	41519.78
739.06	41284.76
739.25	41452.12
739.44	41381.58
739.63	41242.16
739.82	41024.34
740.01	41232.33
740.20	40890.89
740.39	40797.34
740.59	40814.21
740.78	40761.46
740.97	40519.88
741.16	40374.64
741.35	40568.62
741.54	40427.39
741.73	40479.00
741.92	40286.08
742.11	40436.32
742.30	40440.67
742.49	40144.94
742.68	40452.05
742.87	40347.28
743.06	39916.63
743.25	40194.75
743.44	39928.67
743.63	40232.02
743.82	39795.31
744.01	39750.58
744.20	39504.33
744.39	39837.09
744.58	39578.14
744.77	39406.85
744.96	39075.41
745.15	39491.80
745.34	39141.27
745.53	39322.15
745.72	38911.82
745.91	39010.53
746.10	38748.31
746.29	39057.80
746.48	38976.94
746.67	38854.47
746.86	38758.05
747.04	38685.15
747.23	38451.92
747.42	38821.05
747.61	38319.95
747.80	38874.71
747.99	38182.33
748.18	38670.57
748.37	38377.05
748.56	37989.66
748.75	38118.68
748.94	38057.49
749.13	38011.94
749.32	37713.26
749.51	37778.31
749.70	37796.66
749.89	37585.47
750.08	37595.46
750.27	37156.13
750.46	37380.51
750.65	37757.99
750.84	37108.70
751.02	37313.91
751.21	37135.57
751.40	37205.20
751.59	37245.42
751.78	36902.92
751.97	36946.75
752.16	36560.58
752.35	36871.63
752.54	36482.27
752.73	36784.47
752.92	36362.34
753.11	36263.71
753.30	36378.31
753.49	36403.63
753.67	36299.84
753.86	35985.10
754.05	36103.07
754.24	35781.62
754.43	35746.80
754.62	35714.45
754.81	35421.50
755.00	35592.14
755.19	35438.46
755.38	35043.53
755.56	35354.49
755.75	35483.76
755.94	34974.23
756.13	35079.00
756.32	35187.87
756.51	34910.49
756.70	34997.33
756.89	34815.55
757.08	34759.35
757.26	34727.32
757.45	34573.15
757.64	34367.54
757.83	34667.93
758.02	34342.80
758.21	34255.06
758.40	34252.03
758.59	34228.03
758.77	33985.30
758.96	34026.92
759.15	34011.68
759.34	33556.30
759.53	33684.17
759.72	33622.16
759.91	33246.64
760.09	33518.20
760.28	33518.61
760.47	33038.81
760.66	33324.06
760.85	32877.84
761.04	33194.21
761.23	32974.34
761.41	32877.93
761.60	32887.18
761.79	32664.36
761.98	32381.25
762.17	32620.87
762.36	32301.79
762.54	32518.88
762.73	32340.29
762.92	32101.58
763.11	32339.39
763.30	32380.93
763.49	32192.35
763.67	32010.73
763.86	31988.21
764.05	32105.92
764.24	31819.37
764.43	32091.01
764.61	31576.81
764.80	31502.84
764.99	31794.80
765.18	31338.26
765.37	31436.24
765.55	31433.62
765.74	31121.10
765.93	30891.89
766.12	31183.93
766.31	30990.76
766.49	30956.11
766.68	31012.31
766.87	30831.35
767.06	30627.78
767.25	30720.10
767.43	30700.36
767.62	30451.82
767.81	30614.18
768.00	30292.41
768.19	30151.75
768.37	30235.39
768.56	30224.50
768.75	30239.57
768.94	30219.83
769.12	29981.12
769.31	29903.62
769.50	29858.32
769.69	29876.34
769.88	29346.16
770.06	29891.74
770.25	29447.66
770.44	29430.21
770.63	29613.14
770.81	29417.43
771.00	29290.70
771.19	29345.26
771.38	29137.27
771.56	29255.40
771.75	28623.39
771.94	28989.65
772.13	29013.49
772.31	28807.47
772.50	29063.30
772.69	28816.48
772.88	29122.77
773.06	28610.78
773.25	28700.81
773.44	28708.51
773.62	28586.78
773.81	28528.29
774.00	28332.83
774.19	28495.93
774.37	28331.52
774.56	28554.25
774.75	28009.74
774.94	28387.88
775.12	28001.39
775.31	28198.56
775.50	28108.13
775.68	27888.17
775.87	27721.30
776.06	27644.14
776.25	27794.79
776.43	27540.02
776.62	27720.24
776.81	27380.60
776.99	27564.59
777.18	27396.58
777.37	27077.26
777.55	27240.85
777.74	27262.31
777.93	27162.95
778.12	27173.43
778.30	26945.45
778.49	26943.40
778.68	27058.01
778.86	26892.53
779.05	27059.07
779.24	27003.78
779.42	26786.04
779.61	26619.42
779.80	26630.97
779.98	26737.13
780.17	26762.86
780.36	26452.55
780.54	26715.59
780.73	26202.45
780.92	26456.81
781.10	26319.02
781.29	26171.16
781.48	25989.79
781.66	26027.06
781.85	26118.24
782.04	25938.59
782.22	25974.06
782.41	25757.22
782.60	26005.43
782.78	25952.76
782.97	26051.64
783.16	25643.52
783.34	25699.88
783.53	25734.28
783.71	25515.48
783.90	25472.55
784.09	25418.16
784.27	25357.05
784.46	25290.61
784.65	25329.85
784.83	25117.35
785.02	25153.15
785.20	25435.69
785.39	24953.60
785.58	25357.87
785.76	25282.58
785.95	25237.36
786.14	25249.57
786.32	25209.27
786.51	25106.87
786.69	25229.66
786.88	25092.20
787.07	25016.68
787.25	25028.31
787.44	24984.15
787.62	25023.88
787.81	25116.37
788.00	25090.48
788.18	24876.68
788.37	24800.57
788.55	25072.63
788.74	24708.17
788.93	24823.51
789.11	25033.55
789.30	25015.53
789.48	24800.82
789.67	24958.76
789.86	24848.33
790.04	24906.41
790.23	24870.53
790.41	24713.00
790.60	24872.91
790.78	24896.01
790.97	24638.78
791.16	24825.89
791.34	25052.88
791.53	24666.96
791.71	25033.55
791.90	24646.81
792.08	24738.97
792.27	24714.64
792.46	24659.59
792.64	24650.17
792.83	24409.74
793.01	24579.88
793.20	24456.92
793.38	24496.33
793.57	24476.09
793.75	24496.57
793.94	24581.28
794.12	24711.04
794.31	24497.56
794.50	24633.46
794.68	24781.81
794.87	24603.23
795.05	24756.01
795.24	24605.77
795.42	24490.02
795.61	24790.74
795.79	24766.09
795.98	24444.31
796.16	24675.65
796.35	24696.29
796.53	24485.19
796.72	24703.91
796.90	24652.63
797.09	24569.48
797.27	24530.16
797.46	24476.91
797.64	24629.61
797.83	24539.58
798.01	24553.59
798.20	24621.99
798.38	24440.95
798.57	24664.83
798.75	24513.04
798.94	24158.66
799.12	24797.79
799.31	24601.43
799.49	24526.97
799.68	24457.01
799.86	24394.34
800.05	24437.35
800.23	24371.07
800.42	24290.22
800.60	24527.05
800.79	24236.40
800.97	24357.15
801.16	24548.02
801.34	24231.98
801.53	24218.05
801.71	24371.97
801.90	24141.70
802.08	24527.13
802.27	24329.46
802.45	24204.86
802.64	24316.27
802.82	24370.83
803.00	24124.91
803.19	24248.03
803.37	24472.82
803.56	24190.93
803.74	24219.11
803.93	24188.97
804.11	24075.27
804.30	24010.80
804.48	24073.38
804.67	24120.89
804.85	23987.61
805.03	24264.09
805.22	24001.70
805.40	23842.12
805.59	24010.88
805.77	24057.16
805.96	23887.34
806.14	23903.81
806.32	24026.52
806.51	24182.01
806.69	23944.20
806.88	23819.43
807.06	23780.52
807.25	23828.94
807.43	23788.47
807.61	23853.76
807.80	23667.88
807.98	23899.06
808.17	23682.55
808.35	23688.04
808.53	23959.84
808.72	23786.67
808.90	23764.88
809.09	23834.26
809.27	23835.16
809.45	23667.31
809.64	23793.06
809.82	23637.41
810.01	23662.89
810.19	23746.53
810.37	23627.83
810.56	23505.85
810.74	23668.21
810.93	23415.00
811.11	23547.95
811.29	23338.08
811.48	23436.14
811.66	23362.08
811.84	23328.49
812.03	23333.74
812.21	23251.16
812.40	23362.74
812.58	23456.94
812.76	23255.83
812.95	23546.56
813.13	23187.84
813.31	23298.84
813.50	23390.34
813.68	23389.85
813.86	23480.86
814.05	23614.06
814.23	23174.65
814.42	23385.10
814.60	23242.07
814.78	23351.60
814.97	23293.11
815.15	23265.91
815.33	23395.34
815.52	23218.72
815.70	23208.81
815.88	23343.81
816.07	23085.85
816.25	23184.32
816.43	23198.24
816.62	22915.13
816.80	23080.20
816.98	22989.51
817.17	22961.42
817.35	23035.63
817.53	22994.35
817.72	23115.51
817.90	22847.63
818.08	22917.18
818.26	23034.16
818.45	22807.74
818.63	22925.70
818.81	22907.43
819.00	22677.98
819.18	22891.62
819.36	22895.14
819.55	22764.89
819.73	22689.77
819.91	22824.78
820.09	22799.30
820.28	22934.55
820.46	22742.37
820.64	23047.02
820.83	22792.34
821.01	22877.94
821.19	22838.54
821.38	22838.29
821.56	22718.77
821.74	22866.23
821.92	22714.19
822.11	22932.01
822.29	22606.38
822.47	22672.41
822.65	22784.72
822.84	22755.47
823.02	22554.85
823.20	22845.50
823.39	22562.55
823.57	22647.67
823.75	22659.05
823.93	22545.76
824.12	22658.89
824.30	22560.42
824.48	22564.19
824.66	22696.08
824.85	22365.62
825.03	22632.43
825.21	22650.29
825.39	22561.65
825.58	22711.24
825.76	22637.59
825.94	22595.73
826.12	22501.52
826.31	22441.64
826.49	22510.45
826.67	22549.28
826.85	22413.63
827.03	22496.12
827.22	22606.13
827.40	22399.45
827.58	22408.63
827.76	22558.79
827.95	22322.29
828.13	22420.26
828.31	22446.23
828.49	22471.05
828.67	22367.75
828.86	22305.66
829.04	22364.23
829.22	22268.71
829.40	22188.59
829.58	22209.16
829.77	22203.34
829.95	22290.75
830.13	22256.83
830.31	22254.21
830.49	22314.42
830.68	22344.57
830.86	22279.77
831.04	22222.84
831.22	22288.13
831.40	22257.73
831.59	22414.12
831.77	22203.59
831.95	22333.34
832.13	22118.55
832.31	22282.72
832.50	22184.58
832.68	22025.90
832.86	22120.85
833.04	22276.33
833.22	21952.83
833.40	22362.59
833.59	22063.59
833.77	22254.70
833.95	21746.72
834.13	22449.67
834.31	22080.95
834.49	22142.39
834.67	22119.29
834.86	22153.94
835.04	22054.66
835.22	22126.17
835.40	22054.25
835.58	22006.57
835.76	22085.30
835.95	22091.77
836.13	22032.05
836.31	21996.66
836.49	22158.20
836.67	22160.25
836.85	22066.45
837.03	22077.10
837.21	22043.68
837.40	21937.92
837.58	21781.29
837.76	22020.50
837.94	21936.86
838.12	22078.82
838.30	21921.05
838.48	21973.89
838.66	21937.92
838.85	21806.85
839.03	21888.44
839.21	21794.48
839.39	21748.20
839.57	21900.08
839.75	21758.52
839.93	21857.07
840.11	21809.64
840.29	21737.47
840.47	21886.97
840.66	21759.83
840.84	21648.83
841.02	21579.36
841.20	21658.74
841.38	21656.29
841.56	21602.55
841.74	21835.20
841.92	21629.42
842.10	21644.90
842.28	21771.38
842.46	21634.25
842.65	21645.72
842.83	21777.28
843.01	21860.59
843.19	21593.21
843.37	21793.66
843.55	21704.05
843.73	21821.43
843.91	21890.90
844.09	21829.05
844.27	21950.87
844.45	21725.92
844.63	21724.52
844.81	21734.19
844.99	21817.50
845.17	21660.46
845.35	21836.34
845.54	21630.89
845.72	21697.33
845.90	21571.66
846.08	21562.74
846.26	21418.23
846.44	21629.09
846.62	21373.42
846.80	21382.60
846.98	21382.68
847.16	21316.98
847.34	21394.23
847.52	21340.08
847.70	21256.93
847.88	21422.33
848.06	21304.94
848.24	21460.75
848.42	21459.60
848.60	21300.02
848.78	21459.85
848.96	21430.93
849.14	21423.06
849.32	21584.85
849.50	21364.74
849.68	21511.70
849.86	21418.23
850.04	21340.98
850.22	21273.23
850.40	21162.32
850.58	21290.93
850.76	21656.29
850.94	20977.43
851.12	21324.02
851.30	21189.76
851.48	21405.53
851.66	21161.50
851.84	21152.32
852.02	21149.05
852.20	21273.48
852.38	21058.61
852.56	21199.75
852.74	21206.22
852.92	21058.36
853.10	21014.94
853.28	21130.45
853.46	20749.69
853.64	21022.15
853.82	20798.35
854.00	20858.32
854.18	20733.23
854.36	20736.91
854.54	20930.81
854.72	20706.11
854.90	20690.79
855.07	20849.96
855.25	20838.57
855.43	20902.06
855.61	20815.72
855.79	20772.38
855.97	20820.55
856.15	20864.30
856.33	20739.86
856.51	20885.10
856.69	20650.65
856.87	20895.43
857.05	20776.56
857.23	20813.18
857.41	20625.99
857.59	20653.52
857.77	20675.15
857.94	20653.03
858.12	20819.73
858.30	20625.34
858.48	20560.21
858.66	20566.28
858.84	20660.81
859.02	20442.74
859.20	20371.80
859.38	20681.94
859.56	20602.89
859.74	20481.49
859.92	20547.11
860.09	20498.45
860.27	20602.98
860.45	20409.40
860.63	20390.72
860.81	20593.14
860.99	20460.60
861.17	20259.16
861.35	20042.32
861.53	19866.44
861.70	19847.68
861.88	20237.21
862.06	20259.74
862.24	19920.51
862.42	19933.86
862.60	20167.90
862.78	20170.94
862.96	20239.01
863.14	20037.33
863.31	20054.69
863.49	19979.74
863.67	19992.84
863.85	19916.09
864.03	20024.47
864.21	20040.03
864.39	20073.62
864.56	19873.41
864.74	20014.55
864.92	19883.89
865.10	19861.53
865.28	19918.71
865.46	20051.17
865.64	19663.20
865.81	19918.63
865.99	19620.77
866.17	19808.04
866.35	19665.01
866.53	19708.59
866.71	19679.59
866.88	19722.35
867.06	19525.33
867.24	19576.37
867.42	19490.85
867.60	19603.73
867.78	19437.35
867.95	19606.27
868.13	19421.46
868.31	19586.36
868.49	19579.40
868.67	19465.94
868.84	19404.09
869.02	19477.90
869.20	19110.01
869.38	19376.08
869.56	19223.46
869.73	19133.84
869.91	19267.29
870.09	19195.86
870.27	19061.35
870.45	19114.10
870.62	18950.76
870.80	19108.04
870.98	19029.15
871.16	19051.02
871.34	19001.38
871.51	18949.85
871.69	18796.34
871.87	18931.51
872.05	18770.94
872.23	18854.83
872.40	18612.10
872.58	18807.15
872.76	18632.34
872.94	18673.13
873.11	18676.08
873.29	18500.69
873.47	18564.75
873.65	18466.86
873.83	18551.65
874.00	18555.33
874.18	18613.17
874.36	18500.20
874.54	18585.07
874.71	18367.82
874.89	18303.68
875.07	18410.42
875.25	18354.55
875.42	18360.94
875.60	18359.06
875.78	18398.05
875.96	18230.69
876.13	18377.49
876.31	18178.84
876.49	18164.66
876.66	18036.71
876.84	18369.71
877.02	18027.04
877.20	18137.55
877.37	18129.85
877.55	18037.53
877.73	18027.04
877.91	17937.99
878.08	18087.33
878.26	18021.31
878.44	18021.55
878.61	18016.96
878.79	17901.62
878.97	17936.11
879.15	18061.28
879.32	17963.39
879.50	17890.48
879.68	17965.52
879.85	17799.96
880.03	17971.74
880.21	17800.94
880.38	18008.69
880.56	17792.10
880.74	18012.29
880.92	17787.51
881.09	17906.87
881.27	17808.32
881.45	17840.76
881.62	17738.60
881.80	17643.17
881.98	17552.57
882.15	17775.22
882.33	17572.06
882.51	17621.30
882.68	17515.62
882.86	17714.36
883.04	17488.42
883.21	17532.74
883.39	17667.17
883.57	17458.61
883.74	17502.02
883.92	17601.06
884.10	17528.40
884.27	17499.32
884.45	17449.27
884.63	17594.02
884.80	17487.03
884.98	17501.70
885.16	17495.72
885.33	17498.99
885.51	17462.62
885.69	17448.04
885.86	17345.15
886.04	17423.22
886.21	17251.11
886.39	17453.04
886.57	17190.73
886.74	17426.33
886.92	17379.88
887.10	17344.25
887.27	17299.60
887.45	17315.82
887.62	17349.98
887.80	17328.19
887.98	17501.45
888.15	17459.26
888.33	17404.21
888.51	17530.20
888.68	17387.09
888.86	17460.33
889.03	17327.78
889.21	17419.86
889.39	17436.82
889.56	17432.47
889.74	17409.70
889.91	17395.20
890.09	17418.88
890.27	17413.55
890.44	17405.28
890.62	17384.72
890.79	17403.88
890.97	17423.30
891.14	17349.98
891.32	17368.74
891.50	17312.54
891.67	17361.94
891.85	17287.97
892.02	17256.35
892.20	17423.63
892.38	17303.12
892.55	17186.47
892.73	17264.13
892.90	17138.30
893.08	17207.52
893.25	17154.52
893.43	17323.36
893.60	17147.23
893.78	17201.63
893.96	17134.45
894.13	17221.37
894.31	17272.81
894.48	17178.12
894.66	17206.05
894.83	17220.47
895.01	17175.41
895.18	17196.79
895.36	17099.56
895.53	17192.94
895.71	17130.36
895.89	17132.98
896.06	16978.40
896.24	17105.04
896.41	16984.13
896.59	17035.09
896.76	16745.99
896.94	16926.46
897.11	16912.45
897.29	16942.35
897.46	16754.35
897.64	16790.48
897.81	16737.80
897.99	16619.43
898.16	16861.75
898.34	16779.83
898.51	16726.91
898.69	16648.76
898.86	16686.77
899.04	16729.20
899.21	16554.30
899.39	16638.03
899.56	16515.56
899.74	16714.70
899.91	16526.70
900.09	16491.64
900.26	16512.77
900.44	16343.45
900.61	16403.00
900.79	16503.35
900.96	16386.62
901.14	16358.60
901.31	16287.00
901.49	16215.41
901.66	16285.53
901.84	16283.24
902.01	16091.96
902.19	16196.24
902.36	16052.80
902.54	16088.84
902.71	16081.63
902.88	16133.41
903.06	15890.52
903.23	16202.79
903.41	15965.64
903.58	15955.81
903.76	15862.99
903.93	15940.24
904.11	15953.59
904.28	15853.49
904.45	15900.76
904.63	15860.53
904.80	15683.75
904.98	15791.64
905.15	15627.23
905.33	15743.80
905.50	15617.32
905.68	15657.13
905.85	15589.22
906.02	15501.16
906.20	15642.47
906.37	15394.01
906.55	15380.82
906.72	15457.25
906.90	15239.26
907.07	15152.43
907.24	15242.46
907.42	15085.58
907.59	15094.35
907.77	15020.62
907.94	14989.74
908.11	15038.97
908.29	14967.05
908.46	14925.76
908.64	14801.08
908.81	14828.11
908.98	14683.94
909.16	14731.86
909.33	14675.91
909.51	14622.25
909.68	14540.99
909.85	14532.22
910.03	14455.46
910.20	14385.34
910.37	14319.97
910.55	14302.93
910.72	14247.88
910.90	14139.50
911.07	14104.93
911.24	14092.48
911.42	14197.26
911.59	14014.17
911.76	14028.91
911.94	13915.05
912.11	13904.72
912.29	13885.80
912.46	13812.16
912.63	13815.27
912.81	13724.67
912.98	13802.41
913.15	13648.16
913.33	13677.40
913.50	13656.02
913.67	13593.60
913.85	13590.81
914.02	13589.67
914.19	13494.56
914.37	13501.52
914.54	13465.64
914.71	13451.80
914.89	13380.36
915.06	13384.13
915.23	13248.97
915.41	13235.12
915.58	13163.36
915.75	13100.20
915.93	13101.10
916.10	13052.36
916.27	13006.57
916.45	12988.38
916.62	12905.73
916.79	12988.14
916.97	12814.55
917.14	12843.47
917.31	12715.84
917.49	12750.49
917.66	12719.61
917.83	12647.93
918.00	12623.93
918.18	12568.14
918.35	12492.94
918.52	12510.96
918.70	12403.07
918.87	12403.24
919.04	12405.28
919.21	12378.33
919.39	12271.51
919.56	12313.04
919.73	12172.80
919.91	12206.30
920.08	12156.50
920.25	12061.06
920.42	12166.57
920.60	12043.61
920.77	11947.52
920.94	11960.47
921.11	11834.97
921.29	11860.20
921.46	11706.52
921.63	11839.64
921.81	11737.73
921.98	11738.06
922.15	11683.74
922.32	11688.09
922.50	11607.80
922.67	11622.06
922.84	11553.17
923.01	11440.77
923.19	11449.62
923.36	11450.11
923.53	11239.17
923.70	11357.22
923.87	11265.55
924.05	11284.64
924.22	11193.30
924.39	11189.77
924.56	11092.62
924.74	11136.53
924.91	11134.31
925.08	11085.41
925.25	11022.33
925.43	11025.85
925.60	10913.46
925.77	11016.68
925.94	10925.26
926.11	10880.45
926.29	10809.83
926.46	10829.25
926.63	10803.69
926.80	10740.78
926.97	10639.69
927.15	10713.83
927.32	10605.45
927.49	10584.72
927.66	10608.23
927.83	10567.11
928.01	10471.92
928.18	10443.25
928.35	10368.62
928.52	10433.25
928.69	10276.79
928.87	10284.90
929.04	10275.40
929.21	10269.01
929.38	10162.59
929.55	10201.75
929.72	10079.28
929.90	10122.95
930.07	10095.42
930.24	10036.36
930.41	10024.48
930.58	9974.35
930.75	9964.11
930.93	9919.30
931.10	9862.53
931.27	9791.01
931.44	9786.75
931.61	9738.50
931.78	9770.37
931.95	9715.56
932.13	9631.92
932.30	9742.92
932.47	9580.73
932.64	9650.03
932.81	9576.22
932.98	9549.84
933.15	9542.96
933.33	9447.61
933.50	9525.02
933.67	9383.63
933.84	9421.15
934.01	9411.97
934.18	9372.65
934.35	9365.93
934.52	9320.22
934.70	9337.92
934.87	9292.94
935.04	9259.85
935.21	9248.63
935.38	9227.82
935.55	9202.10
935.72	9223.81
935.89	9100.60
936.06	9125.67
936.24	9020.73
936.41	9097.32
936.58	9013.93
936.75	9017.37
936.92	8943.64
937.09	8947.17
937.26	8875.16
937.43	8904.81
937.60	8912.51
937.77	8853.12
937.94	8853.78
938.12	8843.62
938.29	8793.98
938.46	8807.08
938.63	8700.18
938.80	8743.11
938.97	8665.53
939.14	8656.60
939.31	8628.09
939.48	8678.72
939.65	8553.71
939.82	8575.99
939.99	8561.57
940.16	8524.47
940.33	8549.20
940.50	8472.28
940.67	8424.52
940.85	8450.16
941.02	8432.06
941.19	8424.20
941.36	8395.44
941.53	8379.55
941.70	8412.81
941.87	8282.89
942.04	8303.61
942.21	8249.55
942.38	8281.90
942.55	8177.05
942.72	8233.98
942.89	8164.51
943.06	8088.99
943.23	8076.12
943.40	8076.04
943.57	8102.75
943.74	8070.47
943.91	8053.35
944.08	7992.08
944.25	8047.37
944.42	7959.72
944.59	7941.61
944.76	7962.26
944.93	7938.09
945.10	7929.08
945.27	7896.23
945.44	7801.53
945.61	7836.18
945.78	7813.82
945.95	7800.71
946.12	7757.54
946.29	7741.08
946.46	7746.24
946.63	7717.81
946.80	7693.07
946.97	7663.09
947.14	7632.21
947.31	7648.75
947.48	7623.11
947.65	7587.40
947.82	7569.21
947.99	7582.56
948.16	7503.51
948.33	7596.82
948.50	7469.76
948.67	7460.34
948.84	7445.35
949.01	7407.91
949.18	7414.22
949.35	7452.15
949.52	7355.65
949.68	7371.87
949.85	7323.54
950.02	7328.62
950.19	7306.91
950.36	7267.59
950.53	7301.42
950.70	7278.73
950.87	7241.21
951.04	7281.02
951.21	7209.34
951.38	7155.36
951.55	7184.03
951.72	7171.09
951.89	7149.54
952.06	7165.35
952.23	7136.84
952.39	7127.18
952.56	7047.55
952.73	7097.69
952.90	7051.16
953.07	7079.01
953.24	6999.47
953.41	7009.87
953.58	6940.81
953.75	7036.98
953.92	6957.28
954.09	6913.86
954.25	6899.52
954.42	6873.97
954.59	6858.07
954.76	6819.16
954.93	6833.25
955.10	6848.74
955.27	6804.01
955.44	6792.29
955.61	6738.39
955.77	6832.52
955.94	6788.28
956.11	6761.98
956.28	6789.26
956.45	6734.54
956.62	6757.81
956.79	6750.43
956.96	6708.90
957.12	6735.03
957.29	6680.06
957.46	6686.54
957.63	6647.22
957.80	6644.68
957.97	6608.39
958.14	6631.57
958.30	6541.29
958.47	6562.43
958.64	6535.40
958.81	6574.47
958.98	6529.66
959.15	6537.94
959.32	6536.71
959.48	6521.39
959.65	6457.25
959.82	6466.99
959.99	6411.29
960.16	6461.91
960.33	6429.56
960.49	6414.57
960.66	6377.62
960.83	6383.44
961.00	6400.56
961.17	6390.24
961.33	6336.91
961.50	6376.23
961.67	6272.03
961.84	6316.35
962.01	6281.53
962.18	6295.87
962.34	6254.82
962.51	6251.47
962.68	6209.11
962.85	6277.68
963.02	6165.61
963.18	6197.24
963.35	6164.14
963.52	6181.34
963.69	6168.65
963.86	6162.99
964.02	6082.39
964.19	6126.87
964.36	6083.86
964.53	6072.06
964.69	6026.35
964.86	6080.01
965.03	6011.20
965.20	6058.14
965.37	5969.34
965.53	5970.65
965.70	5958.28
965.87	5968.85
966.04	5950.82
966.20	5932.31
966.37	5925.92
966.54	5899.21
966.71	5928.13
966.87	5902.66
967.04	5869.15
967.21	5878.49
967.38	5879.39
967.54	5870.30
967.71	5843.26
967.88	5834.58
968.05	5818.20
968.21	5807.22
968.38	5744.88
968.55	5783.05
968.72	5749.80
968.88	5729.73
969.05	5775.85
969.22	5726.86
969.39	5726.04
969.55	5718.42
969.72	5672.87
969.89	5699.17
970.05	5730.38
970.22	5713.67
970.39	5676.23
970.56	5687.95
970.72	5661.65
970.89	5695.48
971.06	5629.46
971.22	5638.63
971.39	5630.44
971.56	5644.94
971.73	5594.72
971.89	5612.42
972.06	5577.77
972.23	5601.69
972.39	5534.18
972.56	5579.73
972.73	5529.02
972.89	5562.28
973.06	5544.83
973.23	5532.71
973.39	5486.34
973.56	5504.78
973.73	5497.73
973.89	5512.64
974.06	5469.22
974.23	5485.28
974.39	5447.68
974.56	5423.59
974.73	5421.06
974.89	5411.80
975.06	5404.84
975.23	5430.97
975.39	5346.67
975.56	5389.60
975.73	5367.15
975.89	5370.68
976.06	5361.01
976.23	5315.71
976.39	5311.20
976.56	5299.41
976.73	5306.53
976.89	5292.36
977.06	5262.71
977.23	5277.78
977.39	5244.52
977.56	5273.68
977.72	5199.38
977.89	5248.86
978.06	5226.99
978.22	5214.70
978.39	5215.93
978.56	5209.87
978.72	5182.43
978.89	5197.66
979.05	5169.32
979.22	5162.03
979.39	5135.08
979.55	5146.71
979.72	5128.52
979.88	5163.50
980.05	5095.51
980.22	5117.14
980.38	5116.97
980.55	5121.56
980.71	5070.12
980.88	5092.81
981.05	5069.13
981.21	5052.75
981.38	5040.71
981.54	5044.47
981.71	5028.66
981.88	5008.92
982.04	5027.03
982.21	5012.03
982.37	5009.50
982.54	5017.11
982.70	5012.36
982.87	4987.95
983.04	4925.77
983.20	4994.59
983.37	4929.13
983.53	4984.67
983.70	4977.14
983.86	4967.31
984.03	4952.15
984.20	4965.42
984.36	4940.52
984.53	4939.13
984.69	4894.32
984.86	4901.69
985.02	4898.91
985.19	4883.42
985.35	4860.08
985.52	4874.66
985.68	4838.04
985.85	4863.11
986.02	4837.38
986.18	4835.25
986.35	4815.02
986.51	4822.80
986.68	4818.87
986.84	4810.68
987.01	4784.06
987.17	4802.32
987.34	4778.89
987.50	4783.40
987.67	4766.11
987.83	4787.25
988.00	4747.44
988.16	4747.27
988.33	4733.27
988.49	4750.14
988.66	4730.40
988.82	4722.53
988.99	4713.11
989.15	4731.63
989.32	4698.70
989.48	4674.20
989.65	4675.51
989.81	4681.00
989.98	4650.61
990.14	4659.54
990.31	4650.36
990.47	4655.20
990.64	4643.56
990.80	4613.50
990.97	4632.67
991.13	4635.78
991.30	4606.78
991.46	4594.33
991.63	4575.41
991.79	4588.27
991.95	4558.04
992.12	4596.22
992.28	4548.62
992.45	4536.25
992.61	4558.29
992.78	4551.00
992.94	4519.21
993.11	4568.04
993.27	4509.71
993.44	4538.95
993.60	4527.98
993.76	4516.26
993.93	4528.63
994.09	4536.33
994.26	4510.69
994.42	4509.46
994.59	4461.54
994.75	4501.19
994.91	4490.46
995.08	4461.95
995.24	4428.77
995.41	4464.74
995.57	4442.86
995.74	4448.84
995.90	4429.02
996.06	4439.18
996.23	4424.02
996.39	4418.62
996.56	4392.97
996.72	4413.54
996.88	4409.52
997.05	4396.33
997.21	4401.25
997.38	4425.91
997.54	4361.68
997.70	4382.65
997.87	4375.94
998.03	4377.90
998.20	4339.48
998.36	4354.96
998.52	4325.15
998.69	4362.09
998.85	4329.90
999.02	4327.77
999.18	4296.07
999.34	4320.15
999.51	4308.27
999.67	4302.78
999.83	4288.86
1000.00	4301.14
1000.16	4283.20
1000.33	4286.48
1000.49	4255.11
1000.65	4279.68
1000.82	4277.14
1000.98	4247.49
1001.14	4231.68
1001.31	4260.84
1001.47	4262.07
1001.63	4249.29
1001.80	4218.73
1001.96	4201.12
1002.12	4198.34
1002.29	4230.12
1002.45	4201.12
1002.61	4204.40
1002.78	4201.45
1002.94	4198.91
1003.10	4185.72
1003.27	4211.93
1003.43	4161.31
1003.59	4178.92
1003.76	4157.29
1003.92	4164.34
1004.08	4142.80
1004.25	4178.76
1004.41	4137.55
1004.57	4151.72
1004.74	4135.75
1004.90	4148.45
1005.06	4129.36
1005.23	4143.86
1005.39	4129.85
1005.55	4132.15
1005.71	4124.28
1005.88	4117.97
1006.04	4114.45
1006.20	4128.70
1006.37	4087.42
1006.53	4106.51
1006.69	4087.75
1006.85	4095.61
1007.02	4081.27
1007.18	4080.78
1007.34	4062.60
1007.51	4065.05
1007.67	4043.59
1007.83	4055.14
1007.99	4016.07
1008.16	4046.05
1008.32	4010.33
1008.48	4036.05
1008.64	4027.21
1008.81	4042.12
1008.97	4006.56
1009.13	4024.50
1009.29	4005.58
1009.46	4003.12
1009.62	4009.10
1009.78	3994.03
1009.95	4017.38
1010.11	3992.15
1010.27	3976.66
1010.43	3982.56
1010.59	3994.19
1010.76	3981.99
1010.92	3971.50
1011.08	3967.65
1011.24	3944.22
1011.41	3991.98
1011.57	3948.16
1011.73	3924.24
1011.89	3929.23
1012.06	3963.88
1012.22	3915.39
1012.38	3939.64
1012.54	3937.83
1012.70	3911.05
1012.87	3899.82
1013.03	3932.43
1013.19	3909.49
1013.35	3926.78
1013.51	3875.25
1013.68	3903.02
1013.84	3883.60
1014.00	3881.88
1014.16	3867.63
1014.32	3860.09
1014.49	3858.62
1014.65	3899.50
1014.81	3847.15
1014.97	3873.77
1015.13	3843.14
1015.30	3860.50
1015.46	3846.90
1015.62	3862.14
1015.78	3853.79
1015.94	3858.95
1016.10	3842.64
1016.27	3835.03
1016.43	3816.10
1016.59	3812.99
1016.75	3816.68
1016.91	3820.77
1017.07	3794.97
1017.24	3795.21
1017.40	3778.50
1017.56	3793.25
1017.72	3764.99
1017.88	3782.27
1018.04	3775.64
1018.21	3785.06
1018.37	3760.23
1018.53	3766.87
1018.69	3768.43
1018.85	3769.16
1019.01	3764.49
1019.17	3735.33
1019.34	3744.34
1019.50	3749.34
1019.66	3729.43
1019.82	3748.03
1019.98	3718.54
1020.14	3744.18
1020.30	3739.75
1020.46	3726.57
1020.63	3705.19
1020.79	3716.65
1020.95	3736.64
1021.11	3724.27
1021.27	3699.70
1021.43	3715.67
1021.59	3711.17
1021.75	3715.75
1021.91	3685.11
1022.07	3694.78
1022.24	3679.54
1022.40	3703.30
1022.56	3673.97
1022.72	3714.69
1022.88	3675.94
1023.04	3671.52
1023.20	3664.72
1023.36	3666.77
1023.52	3661.28
1023.68	3664.06
1023.84	3633.18
1024.01	3668.16
1024.17	3630.97
1024.33	3659.47
1024.49	3637.27
1024.65	3636.13
1024.81	3638.42
1024.97	3650.79
1025.13	3646.53
1025.29	3644.07
1025.45	3617.78
1025.61	3653.25
1025.77	3623.59
1025.93	3638.01
1026.09	3625.40
1026.25	3621.38
1026.41	3609.50
1026.57	3609.67
1026.73	3620.15
1026.90	3609.18
1027.06	3601.07
1027.22	3603.77
1027.38	3599.67
1027.54	3614.75
1027.70	3598.04
1027.86	3601.23
1028.02	3591.40
1028.18	3597.63
1028.34	3594.02
1028.50	3591.89
1028.66	3590.91
1028.82	3588.94
1028.98	3569.28
1029.14	3562.48
1029.30	3570.51
1029.46	3573.21
1029.62	3557.73
1029.78	3551.75
1029.94	3542.99
1030.10	3571.17
1030.26	3533.24
1030.42	3551.01
1030.58	3527.50
1030.74	3552.32
1030.90	3524.80
1031.06	3546.84
1031.22	3516.12
1031.38	3534.06
1031.54	3542.58
1031.70	3542.25
1031.86	3523.16
1032.02	3552.16
1032.18	3504.16
1032.34	3518.57
1032.50	3504.65
1032.66	3520.13
1032.82	3508.01
1032.98	3523.00
1033.14	3514.31
1033.30	3537.01
1033.45	3493.59
1033.61	3511.69
1033.77	3479.58
1033.93	3510.05
1034.09	3471.31
1034.25	3497.03
1034.41	3482.04
1034.57	3479.91
1034.73	3489.57
1034.89	3500.96
1035.05	3471.55
1035.21	3496.70
1035.37	3471.63
1035.53	3465.74
1035.69	3456.07
1035.85	3488.59
1036.01	3454.84
1036.16	3477.70
1036.32	3447.06
1036.48	3458.61
1036.64	3449.19
1036.80	3468.28
1036.96	3457.71
1037.12	3463.52
1037.28	3459.67
1037.44	3462.30
1037.60	3451.16
1037.76	3439.52
1037.91	3456.15
1038.07	3447.88
1038.23	3438.70
1038.39	3449.35
1038.55	3434.03
1038.71	3450.83
1038.87	3412.24
1039.03	3444.93
1039.19	3413.23
1039.35	3446.08
1039.50	3444.77
1039.66	3431.90
1039.82	3416.75
1039.98	3414.54
1040.14	3404.71
1040.30	3413.14
1040.46	3409.38
1040.62	3402.82
1040.77	3401.02
1040.93	3413.23
1041.09	3401.35
1041.25	3405.20
1041.41	3392.01
1041.57	3399.79
1041.73	3399.79
1041.88	3399.79

