SpectraSuite Data File
++++++++++++++++++++++++++++++++++++
Date: Tue Sep 20 11:40:00 EDT 2022
User: Laboratoire
Dark Spectrum Present: No
Reference Spectrum Present: No
Number of Sampled Component Spectra: 1
Spectrometers: FLMT00174
Integration Time (usec): 15000 (FLMT00174)
Spectra Averaged: 25 (FLMT00174)
Boxcar Smoothing: 0 (FLMT00174)
Correct for Electrical Dark: No (FLMT00174)
Strobe/Lamp Enabled: No (FLMT00174)
Correct for Detector Non-linearity: No (FLMT00174)
Correct for Stray Light: No (FLMT00174)
Number of Pixels in Processed Spectrum: 3648
>>>>>Begin Processed Spectral Data<<<<<
345.74	3134.87
345.96	3134.87
346.18	3134.87
346.39	3156.49
346.61	3201.63
346.83	3203.11
347.05	3212.94
347.27	3186.07
347.49	3207.45
347.71	3191.96
347.93	3209.58
348.15	3207.12
348.36	3191.14
348.58	3182.22
348.80	3183.12
349.02	3200.16
349.24	3202.04
349.46	3297.31
349.68	3310.91
349.90	3325.33
350.11	3312.30
350.33	3296.08
350.55	3288.63
350.77	3318.77
350.99	3297.15
351.21	3305.18
351.43	3284.70
351.65	3326.64
351.86	3289.45
352.08	3340.16
352.30	3284.04
352.52	3327.38
352.74	3280.76
352.96	3301.65
353.18	3308.04
353.39	3305.26
353.61	3302.72
353.83	3322.46
354.05	3317.05
354.27	3317.71
354.49	3321.48
354.70	3297.97
354.92	3302.39
355.14	3294.53
355.36	3293.13
355.58	3319.92
355.80	3295.67
356.02	3300.51
356.23	3310.83
356.45	3297.89
356.67	3325.74
356.89	3330.08
357.11	3295.26
357.33	3336.63
357.54	3313.53
357.76	3314.02
357.98	3299.03
358.20	3316.64
358.42	3312.06
358.63	3315.42
358.85	3311.98
359.07	3322.54
359.29	3291.66
359.51	3311.57
359.73	3292.56
359.94	3308.78
360.16	3299.11
360.38	3283.63
360.60	3293.95
360.82	3307.39
361.03	3302.39
361.25	3310.42
361.47	3328.36
361.69	3319.43
361.91	3308.04
362.12	3311.57
362.34	3313.94
362.56	3323.69
362.78	3307.63
363.00	3334.58
363.21	3309.68
363.43	3313.12
363.65	3294.20
363.87	3313.29
364.09	3313.12
364.30	3300.42
364.52	3298.21
364.74	3320.41
364.96	3298.54
365.17	3307.47
365.39	3307.47
365.61	3308.29
365.83	3303.05
366.05	3324.51
366.26	3304.60
366.48	3318.69
366.70	3327.79
366.92	3336.80
367.13	3324.84
367.35	3322.54
367.57	3325.57
367.79	3342.61
368.01	3311.57
368.22	3335.98
368.44	3303.37
368.66	3305.26
368.88	3316.23
369.09	3332.78
369.31	3321.15
369.53	3311.89
369.75	3321.40
369.96	3345.97
370.18	3321.15
370.40	3332.05
370.62	3327.70
370.83	3324.92
371.05	3344.66
371.27	3335.81
371.49	3324.10
371.70	3331.88
371.92	3322.05
372.14	3322.79
372.36	3331.39
372.57	3343.68
372.79	3330.00
373.01	3328.93
373.22	3320.90
373.44	3328.44
373.66	3312.06
373.88	3331.55
374.09	3315.58
374.31	3316.15
374.53	3324.51
374.75	3338.60
374.96	3340.73
375.18	3346.87
375.40	3326.31
375.61	3331.64
375.83	3328.52
376.05	3335.65
376.27	3346.38
376.48	3335.90
376.70	3338.35
376.92	3331.14
377.13	3338.84
377.35	3343.76
377.57	3333.77
377.79	3334.42
378.00	3337.70
378.22	3347.61
378.44	3331.64
378.65	3353.92
378.87	3360.88
379.09	3361.78
379.30	3321.97
379.52	3349.90
379.74	3367.68
379.96	3350.39
380.17	3326.07
380.39	3358.75
380.61	3352.77
380.82	3341.30
381.04	3330.82
381.26	3365.39
381.47	3347.12
381.69	3374.89
381.91	3337.86
382.12	3353.92
382.34	3363.58
382.56	3373.41
382.77	3351.79
382.99	3360.23
383.21	3365.71
383.42	3374.23
383.64	3365.88
383.86	3355.39
384.07	3370.14
384.29	3362.93
384.51	3350.80
384.72	3374.81
384.94	3358.91
385.16	3366.78
385.37	3374.32
385.59	3375.54
385.81	3364.98
386.02	3375.22
386.24	3378.58
386.46	3366.21
386.67	3386.68
386.89	3399.05
387.11	3411.59
387.32	3408.15
387.54	3394.39
387.76	3399.05
387.97	3421.91
388.19	3406.51
388.40	3401.51
388.62	3393.24
388.84	3412.41
389.05	3428.14
389.27	3406.35
389.49	3436.74
389.70	3408.39
389.92	3427.40
390.14	3409.46
390.35	3425.92
390.57	3446.98
390.78	3453.28
391.00	3429.86
391.22	3455.74
391.43	3435.67
391.65	3464.51
391.86	3481.71
392.08	3483.68
392.30	3459.02
392.51	3471.63
392.73	3498.91
392.95	3491.70
393.16	3484.33
393.38	3496.29
393.59	3489.74
393.81	3510.63
394.03	3497.77
394.24	3507.02
394.46	3519.15
394.67	3512.59
394.89	3500.63
395.11	3545.61
395.32	3530.45
395.54	3536.51
395.75	3540.69
395.97	3514.07
396.19	3511.45
396.40	3532.91
396.62	3541.27
396.83	3548.06
397.05	3525.54
397.26	3542.74
397.48	3552.16
397.70	3541.92
397.91	3549.29
398.13	3559.21
398.34	3540.04
398.56	3566.17
398.78	3562.81
398.99	3592.71
399.21	3538.56
399.42	3572.39
399.64	3552.32
399.85	3568.13
400.07	3549.87
400.29	3577.88
400.50	3579.36
400.72	3573.30
400.93	3549.05
401.15	3563.38
401.36	3576.90
401.58	3604.51
401.79	3582.63
402.01	3583.78
402.23	3590.33
402.44	3612.78
402.66	3579.52
402.87	3614.75
403.09	3605.98
403.30	3605.90
403.52	3591.81
403.73	3583.21
403.95	3613.68
404.16	3609.75
404.38	3622.53
404.60	3618.92
404.81	3623.84
405.03	3640.47
405.24	3658.41
405.46	3645.71
405.67	3668.16
405.89	3654.15
406.10	3663.08
406.32	3670.70
406.53	3688.39
406.75	3715.34
406.96	3682.82
407.18	3697.32
407.39	3699.61
407.61	3739.92
407.82	3729.51
408.04	3745.16
408.25	3736.97
408.47	3759.25
408.68	3771.62
408.90	3756.88
409.12	3777.27
409.33	3802.18
409.55	3797.75
409.76	3819.46
409.98	3837.40
410.19	3835.52
410.41	3857.23
410.62	3882.62
410.84	3852.80
411.05	3872.71
411.27	3906.87
411.48	3921.29
411.70	3926.04
411.91	3937.26
412.12	3942.42
412.34	3939.23
412.55	3980.84
412.77	3954.55
412.98	4004.68
413.20	4007.87
413.41	4020.33
413.63	4029.83
413.84	4040.72
414.06	4082.26
414.27	4086.19
414.49	4083.90
414.70	4089.38
414.92	4125.02
415.13	4106.18
415.35	4129.69
415.56	4166.31
415.78	4154.84
415.99	4181.62
416.21	4178.18
416.42	4202.51
416.63	4221.19
416.85	4199.32
417.06	4208.58
417.28	4184.08
417.49	4249.29
417.71	4233.32
417.92	4219.96
418.14	4248.39
418.35	4268.87
418.57	4251.50
418.78	4254.53
418.99	4250.60
419.21	4288.69
419.42	4251.50
419.64	4251.09
419.85	4282.38
420.07	4323.84
420.28	4278.29
420.50	4276.81
420.71	4274.85
420.92	4269.36
421.14	4304.34
421.35	4271.65
421.57	4296.31
421.78	4289.92
422.00	4294.26
422.21	4292.54
422.42	4320.07
422.64	4281.57
422.85	4300.82
423.07	4328.10
423.28	4315.40
423.50	4319.33
423.71	4322.93
423.92	4347.59
424.14	4320.97
424.35	4318.59
424.57	4351.93
424.78	4375.85
424.99	4362.83
425.21	4372.33
425.42	4361.35
425.64	4355.37
425.85	4372.50
426.06	4365.86
426.28	4348.17
426.49	4418.37
426.71	4386.75
426.92	4396.58
427.13	4425.91
427.35	4457.61
427.56	4461.70
427.78	4451.63
427.99	4458.43
428.20	4481.45
428.42	4501.84
428.63	4505.29
428.84	4453.10
429.06	4494.64
429.27	4556.40
429.49	4531.91
429.70	4581.06
429.91	4581.96
430.13	4587.20
430.34	4608.50
430.56	4620.87
430.77	4661.91
430.98	4637.09
431.20	4663.47
431.41	4686.49
431.62	4712.21
431.84	4673.46
432.05	4734.99
432.26	4758.91
432.48	4747.85
432.69	4817.64
432.91	4817.72
433.12	4830.99
433.33	4864.99
433.55	4923.64
433.76	4940.68
433.97	4909.39
434.19	4963.29
434.40	4978.12
434.61	5022.60
434.83	5052.50
435.04	5060.20
435.25	5129.34
435.47	5121.40
435.68	5129.01
435.89	5220.68
436.11	5193.16
436.32	5257.79
436.53	5260.66
436.75	5275.90
436.96	5331.44
437.17	5290.31
437.39	5378.54
437.60	5415.98
437.81	5456.03
438.03	5491.83
438.24	5498.47
438.45	5599.88
438.67	5566.22
438.88	5652.07
439.09	5730.95
439.31	5716.13
439.52	5768.80
439.73	5748.89
439.94	5772.08
440.16	5828.93
440.37	5840.32
440.58	5928.87
440.80	5956.31
441.01	5947.63
441.22	6100.82
441.44	6068.87
441.65	6081.40
441.86	6098.85
442.08	6134.32
442.29	6157.83
442.50	6196.42
442.71	6200.68
442.93	6275.22
443.14	6263.84
443.35	6346.08
443.57	6267.19
443.78	6377.87
443.99	6401.95
444.20	6365.66
444.42	6439.71
444.63	6432.18
444.84	6502.71
445.06	6510.41
445.27	6477.15
445.48	6480.67
445.69	6509.76
445.91	6498.37
446.12	6484.69
446.33	6544.08
446.54	6622.97
446.76	6558.82
446.97	6584.22
447.18	6564.23
447.39	6630.01
447.61	6634.35
447.82	6643.86
448.03	6605.19
448.25	6653.77
448.46	6695.06
448.67	6718.65
448.88	6623.46
449.10	6698.41
449.31	6692.68
449.52	6636.65
449.73	6635.17
449.95	6724.30
450.16	6681.21
450.37	6774.84
450.58	6846.52
450.79	6663.35
451.01	6722.99
451.22	6681.38
451.43	6722.33
451.64	6756.66
451.86	6743.63
452.07	6745.60
452.28	6738.31
452.49	6854.80
452.71	6712.67
452.92	6704.80
453.13	6776.40
453.34	6775.09
453.55	6822.03
453.77	6815.56
453.98	6832.11
454.19	6748.88
454.40	6796.47
454.62	6846.77
454.83	6777.63
455.04	6878.14
455.25	6774.35
455.46	6992.09
455.68	6852.59
455.89	6831.04
456.10	6853.49
456.31	6915.83
456.52	6918.53
456.74	6902.47
456.95	7004.05
457.16	6943.52
457.37	7018.96
457.58	7012.82
457.80	7027.56
458.01	6985.87
458.22	7240.88
458.43	7082.37
458.64	7144.63
458.86	7067.70
459.07	7138.65
459.28	7136.35
459.49	7247.11
459.70	7375.55
459.91	7289.13
460.13	7277.01
460.34	7327.47
460.55	7345.49
460.76	7470.01
460.97	7479.67
461.19	7434.13
461.40	7643.84
461.61	7532.67
461.82	7577.07
462.03	7642.53
462.24	7639.50
462.46	7678.41
462.67	7691.02
462.88	7803.91
463.09	7802.68
463.30	7928.10
463.51	7890.91
463.72	8057.77
463.94	8117.25
464.15	8108.15
464.36	8085.05
464.57	8302.55
464.78	8316.64
464.99	8356.94
465.20	8353.58
465.42	8502.18
465.63	8538.23
465.84	8540.36
466.05	8699.28
466.26	8750.64
466.47	8855.66
466.68	8826.25
466.90	9014.18
467.11	9003.77
467.32	9113.13
467.53	9300.15
467.74	9179.08
467.95	9319.57
468.16	9488.65
468.37	9598.58
468.59	9605.06
468.80	9789.78
469.01	9721.54
469.22	9947.56
469.43	10179.80
469.64	10065.44
469.85	10266.63
470.06	10320.86
470.28	10516.81
470.49	10413.02
470.70	10600.94
470.91	10887.58
471.12	10788.62
471.33	11052.97
471.54	11051.09
471.75	11153.57
471.96	11509.91
472.17	11494.27
472.39	11807.60
472.60	11617.72
472.81	11970.38
473.02	11944.16
473.23	12197.46
473.44	12315.17
473.65	12309.36
473.86	12521.53
474.07	12628.51
474.28	12727.55
474.49	13116.58
474.71	12984.94
474.92	13274.28
475.13	13267.97
475.34	13365.95
475.55	13486.78
475.76	13623.17
475.97	13980.58
476.18	13962.89
476.39	14218.88
476.60	14356.10
476.81	14480.29
477.02	14605.13
477.23	14657.39
477.44	14715.23
477.65	14968.93
477.87	15190.28
478.08	15278.26
478.29	15300.95
478.50	15698.09
478.71	15579.23
478.92	15806.14
479.13	15830.63
479.34	15990.29
479.55	16116.37
479.76	16073.44
479.97	16194.60
480.18	16620.17
480.39	16345.90
480.60	16723.63
480.81	16766.47
481.02	16873.13
481.23	16856.59
481.44	17157.55
481.65	17247.91
481.86	17502.60
482.07	17116.76
482.28	17869.67
482.49	17551.34
482.71	17559.20
482.92	17751.55
483.13	17942.91
483.34	17835.51
483.55	17928.49
483.76	17944.63
483.97	18183.34
484.18	18127.55
484.39	18236.26
484.60	18068.49
484.81	18449.25
485.02	18263.13
485.23	18537.56
485.44	18527.56
485.65	18676.16
485.86	18505.69
486.07	18721.38
486.28	18701.48
486.49	18827.55
486.70	18911.27
486.91	19009.41
487.12	18873.02
487.33	18816.98
487.54	19142.28
487.75	19154.08
487.96	19146.79
488.17	19059.87
488.38	19192.66
488.59	19229.61
488.80	19253.04
489.01	19236.65
489.22	19454.23
489.43	19302.92
489.64	19137.04
489.85	19549.09
490.06	19252.71
490.26	19444.23
490.47	19328.81
490.68	19526.97
490.89	19668.28
491.10	19386.48
491.31	19643.95
491.52	19813.77
491.73	19689.42
491.94	19638.14
492.15	19805.82
492.36	19793.78
492.57	19783.38
492.78	19735.87
492.99	19746.92
493.20	19873.41
493.41	19920.02
493.62	19941.73
493.83	19914.28
494.04	19985.80
494.25	20100.57
494.46	20123.18
494.67	20076.07
494.88	20241.14
495.08	20212.55
495.29	20237.21
495.50	20449.95
495.71	20324.37
495.92	20543.75
496.13	20558.98
496.34	20401.54
496.55	20530.56
496.76	20808.59
496.97	20487.88
497.18	20784.02
497.39	20732.49
497.60	21031.16
497.81	20749.94
498.02	20997.74
498.22	20844.23
498.43	21164.77
498.64	21253.41
498.85	21221.79
499.06	21294.29
499.27	21616.88
499.48	21164.69
499.69	21477.05
499.90	21614.02
500.11	21834.87
500.32	22023.45
500.52	21790.22
500.73	22222.35
500.94	22287.96
501.15	22281.16
501.36	22350.30
501.57	22251.59
501.78	22499.48
501.99	22726.15
502.20	22738.68
502.41	22800.12
502.61	22850.74
502.82	23161.05
503.03	23001.15
503.24	23452.11
503.45	23262.55
503.66	23650.68
503.87	23617.09
504.08	23872.35
504.28	23816.98
504.49	23975.41
504.70	24235.91
504.91	24386.88
505.12	24239.68
505.33	24737.82
505.54	24764.28
505.75	24909.12
505.95	25176.09
506.16	25178.22
506.37	25133.74
506.58	25676.61
506.79	25430.37
507.00	25950.06
507.21	25812.52
507.41	25955.63
507.62	26122.74
507.83	26666.76
508.04	26459.02
508.25	26803.41
508.46	26763.18
508.67	27239.79
508.87	27133.46
509.08	27663.47
509.29	27636.44
509.50	27897.18
509.71	28159.73
509.92	28369.86
510.12	28366.25
510.33	28653.70
510.54	28688.11
510.75	29020.62
510.96	29342.31
511.17	29601.50
511.37	29646.72
511.58	29947.45
511.79	29871.92
512.00	30062.05
512.21	30576.01
512.42	30701.35
512.62	30884.27
512.83	31288.78
513.04	31230.13
513.25	31742.12
513.46	31257.16
513.66	32242.24
513.87	32015.16
514.08	32513.31
514.29	32520.76
514.50	32622.59
514.71	33077.48
514.91	33055.03
515.12	33217.15
515.33	33696.62
515.54	33737.75
515.75	34228.77
515.95	34116.78
516.16	34223.61
516.37	34828.00
516.58	35047.46
516.78	34930.73
516.99	35404.22
517.20	35459.76
517.41	35611.47
517.62	35901.30
517.82	35892.54
518.03	36618.66
518.24	37004.42
518.45	36531.09
518.66	37038.25
518.86	36943.55
519.07	37456.61
519.28	37002.78
519.49	37785.51
519.69	37906.10
519.90	38029.80
520.11	38229.35
520.32	38252.53
520.52	38784.35
520.73	38429.31
520.94	39069.10
521.15	39169.37
521.36	38768.38
521.56	39674.07
521.77	39055.17
521.98	39706.18
522.19	39335.42
522.39	39779.66
522.60	39603.87
522.81	39879.52
523.02	39695.94
523.22	40143.46
523.43	40393.23
523.64	40258.31
523.84	40427.64
524.05	40812.09
524.26	40743.68
524.47	40585.42
524.67	40656.11
524.88	40766.95
525.09	41114.94
525.30	40824.95
525.50	40828.63
525.71	40928.25
525.92	41070.87
526.13	41308.76
526.33	41169.41
526.54	40913.34
526.75	41221.84
526.95	41540.67
527.16	40774.32
527.37	41335.87
527.58	41462.52
527.78	41274.52
527.99	41524.37
528.20	41646.26
528.40	41261.74
528.61	41177.69
528.82	41536.16
529.03	41375.03
529.23	41168.60
529.44	41392.73
529.65	41277.71
529.85	41344.64
530.06	41115.59
530.27	41228.64
530.47	40641.20
530.68	41409.85
530.89	40612.04
531.09	41130.50
531.30	40836.09
531.51	40477.69
531.72	40962.57
531.92	40802.91
532.13	40888.11
532.34	40619.08
532.54	40606.88
532.75	40671.10
532.96	40411.34
533.16	40594.84
533.37	40669.87
533.58	40271.67
533.78	40428.62
533.99	40380.13
534.20	39922.94
534.40	40102.42
534.61	40197.78
534.82	40182.54
535.02	40132.57
535.23	40037.13
535.44	40154.85
535.64	39888.29
535.85	39933.92
536.06	39761.07
536.26	39658.01
536.47	39656.78
536.68	39970.12
536.88	39278.65
537.09	39684.47
537.29	39152.82
537.50	39744.36
537.71	39291.26
537.91	39400.38
538.12	39454.61
538.33	39062.71
538.53	39201.97
538.74	39181.66
538.95	39140.61
539.15	38855.54
539.36	39040.92
539.56	39228.76
539.77	38819.74
539.98	38769.03
540.18	38881.59
540.39	38554.08
540.60	38760.59
540.80	38902.15
541.01	38728.65
541.21	38668.44
541.42	38799.91
541.63	38487.72
541.83	38718.65
542.04	38624.44
542.25	38549.16
542.45	38673.51
542.66	38563.33
542.86	38758.22
543.07	37815.66
543.28	38704.32
543.48	38464.54
543.69	38548.10
543.89	38429.40
544.10	38785.42
544.31	38585.12
544.51	38310.70
544.72	38484.61
544.92	38354.77
545.13	38709.15
545.33	38599.38
545.54	38328.72
545.75	38609.37
545.95	38364.52
546.16	38380.49
546.36	38850.54
546.57	38047.16
546.78	37537.14
546.98	38120.15
547.19	37413.60
547.39	38290.46
547.60	38559.32
547.80	38960.97
548.01	38913.78
548.22	38569.07
548.42	38660.41
548.63	39010.94
548.83	38762.15
549.04	39163.47
549.24	38874.05
549.45	39121.12
549.65	39444.53
549.86	38875.94
550.07	39145.53
550.27	39550.54
550.48	39635.32
550.68	39537.27
550.89	39523.01
551.09	39693.73
551.30	39577.82
551.50	39850.20
551.71	39630.33
551.91	39645.56
552.12	39881.08
552.33	40171.40
552.53	39880.59
552.74	40461.88
552.94	40479.25
553.15	40334.99
553.35	40537.08
553.56	40245.13
553.76	40805.29
553.97	40559.78
554.17	40821.01
554.38	41458.67
554.58	40941.84
554.79	41564.59
554.99	41056.04
555.20	41265.26
555.40	41787.74
555.61	41611.53
555.81	41505.36
556.02	42296.94
556.22	42239.93
556.43	42147.28
556.63	42253.94
556.84	42262.46
557.04	42874.39
557.25	42431.95
557.45	42949.67
557.66	43049.86
557.86	42989.98
558.07	43616.66
558.27	43300.69
558.48	43496.97
558.68	43693.99
558.89	43908.12
559.09	44084.41
559.30	43871.67
559.50	44290.93
559.71	44060.98
559.91	44862.80
560.12	44700.69
560.32	44812.26
560.53	45274.69
560.73	45077.18
560.94	45620.88
561.14	45311.47
561.35	45976.00
561.55	45843.21
561.76	46115.75
561.96	45735.32
562.17	46473.16
562.37	46846.22
562.57	46615.37
562.78	46740.71
562.98	47185.12
563.19	47280.06
563.39	47614.37
563.60	47889.62
563.80	47607.33
564.01	48387.52
564.21	48330.92
564.42	48336.40
564.62	48587.32
564.82	49041.56
565.03	48653.68
565.23	48889.77
565.44	49210.80
565.64	49237.51
565.85	49805.78
566.05	49770.23
566.25	50319.41
566.46	50117.24
566.66	50524.21
566.87	50633.57
567.07	50788.07
567.28	51075.69
567.48	51558.60
567.68	50927.08
567.89	52137.11
568.09	51742.67
568.30	52023.24
568.50	52485.34
568.71	52457.57
568.91	52881.67
569.11	52548.50
569.32	52873.56
569.52	53189.43
569.73	52822.36
569.93	53565.85
570.13	53420.45
570.34	53473.45
570.54	54200.64
570.75	54032.54
570.95	54252.82
571.15	54210.06
571.36	55025.23
571.56	54623.34
571.77	54727.30
571.97	54483.18
572.17	55436.47
572.38	55387.15
572.58	55699.75
572.79	55723.35
572.99	55864.74
573.19	55948.29
573.40	56018.09
573.60	56218.13
573.81	56260.81
574.01	56626.09
574.21	56657.71
574.42	56765.68
574.62	56557.69
574.82	57084.59
575.03	56986.21
575.23	57610.67
575.43	57286.93
575.64	57352.22
575.84	57867.73
576.05	57383.84
576.25	57821.37
576.45	57724.46
576.66	58423.47
576.86	57961.37
577.06	58520.05
577.27	58270.94
577.47	58504.24
577.67	58491.79
577.88	58019.77
578.08	58884.51
578.28	58946.85
578.49	58789.97
578.69	58996.74
578.89	58696.34
579.10	58924.24
579.30	59503.73
579.50	58933.17
579.71	58597.46
579.91	59104.21
580.11	58891.39
580.32	59063.91
580.52	59017.46
580.72	59656.26
580.93	58930.63
581.13	59003.54
581.33	59569.27
581.54	59123.38
581.74	59153.20
581.94	59315.32
582.15	59592.04
582.35	59218.41
582.55	59242.33
582.76	58873.12
582.96	59619.97
583.16	59101.27
583.37	59402.73
583.57	58920.14
583.77	59463.76
583.97	58423.88
584.18	59555.67
584.38	59291.73
584.58	58919.24
584.79	59285.09
584.99	59208.17
585.19	59062.19
585.40	58867.88
585.60	59073.25
585.80	58445.59
586.00	58734.51
586.21	58542.83
586.41	58547.99
586.61	58730.91
586.82	58544.71
587.02	58315.58
587.22	58673.65
587.42	57919.01
587.63	58446.73
587.83	57648.27
588.03	58026.41
588.23	57573.23
588.44	57835.87
588.64	57458.14
588.84	57709.79
589.05	57762.96
589.25	57709.88
589.45	57564.14
589.65	57257.52
589.86	57421.85
590.06	57264.73
590.26	56943.61
590.46	57193.38
590.67	56512.06
590.87	56993.82
591.07	56994.48
591.27	56198.15
591.48	56518.45
591.68	55874.08
591.88	56838.01
592.08	55879.32
592.29	56155.88
592.49	55947.15
592.69	55996.30
592.89	55632.50
593.10	55671.57
593.30	55342.91
593.50	55790.76
593.70	54682.16
593.90	55368.72
594.11	55008.28
594.31	54917.02
594.51	55091.26
594.71	54985.83
594.92	54920.87
595.12	54529.05
595.32	54476.71
595.52	54508.74
595.72	53750.99
595.93	54360.87
596.13	53950.30
596.33	53600.83
596.53	54018.37
596.73	53669.07
596.94	53533.00
597.14	53643.18
597.34	53208.60
597.54	53556.51
597.74	52969.65
597.95	53012.74
598.15	52988.82
598.35	52947.61
598.55	52933.60
598.75	52474.94
598.96	53004.63
599.16	52443.40
599.36	52427.59
599.56	52195.43
599.76	51987.20
599.97	52234.10
600.17	51941.57
600.37	52054.12
600.57	51247.96
600.77	52147.26
600.97	51621.67
601.18	52075.50
601.38	51508.22
601.58	51704.33
601.78	51309.40
601.98	51020.39
602.18	51271.47
602.39	51416.06
602.59	51079.13
602.79	50918.16
602.99	51013.59
603.19	50970.91
603.39	50696.73
603.60	50597.44
603.80	50637.42
604.00	50416.24
604.20	50480.38
604.40	50608.91
604.60	50280.99
604.80	50269.20
605.01	50343.50
605.21	50124.20
605.41	50057.84
605.61	49680.45
605.81	50001.65
606.01	50157.29
606.21	49510.55
606.42	49866.15
606.62	49507.27
606.82	49890.48
607.02	49600.57
607.22	49710.18
607.42	49812.25
607.62	49282.57
607.82	49528.16
608.03	49378.16
608.23	49253.24
608.43	48980.86
608.63	49408.39
608.83	49220.23
609.03	49067.28
609.23	49166.32
609.43	49256.60
609.63	48978.07
609.84	48812.60
610.04	49350.80
610.24	49223.34
610.44	49262.82
610.64	48842.09
610.84	49166.16
611.04	49486.87
611.24	49246.28
611.44	48564.88
611.64	48984.71
611.85	48989.30
612.05	48879.28
612.25	48978.57
612.45	48710.61
612.65	48986.92
612.85	48931.95
613.05	48643.93
613.25	49163.29
613.45	48816.94
613.65	48910.16
613.85	48505.40
614.05	48998.14
614.25	49040.33
614.46	48838.65
614.66	48676.29
614.86	48557.18
615.06	48735.43
615.26	49051.64
615.46	48322.64
615.66	49067.37
615.86	49037.22
616.06	48598.79
616.26	48640.49
616.46	49246.28
616.66	48844.14
616.86	49249.22
617.06	48851.59
617.26	49383.00
617.46	49119.63
617.66	48979.30
617.86	48897.30
618.07	49171.89
618.27	49086.78
618.47	49141.75
618.67	49251.11
618.87	49393.07
619.07	49215.23
619.27	49158.95
619.47	49202.69
619.67	49666.19
619.87	49248.49
620.07	49623.59
620.27	49725.50
620.47	49432.48
620.67	49687.08
620.87	49829.21
621.07	49900.23
621.27	49898.10
621.47	49568.54
621.67	49915.06
621.87	49692.08
622.07	50235.44
622.27	50220.37
622.47	49880.82
622.67	50119.53
622.87	49783.34
623.07	50360.62
623.27	50703.36
623.47	49979.37
623.67	50439.91
623.87	50966.41
624.07	50770.05
624.27	50502.17
624.47	50758.17
624.67	50655.61
624.87	50873.18
625.07	50579.18
625.27	51263.93
625.47	50996.72
625.67	50924.46
625.87	51224.61
626.07	51262.21
626.27	51557.78
626.47	51541.56
626.67	51435.23
626.87	51248.21
627.07	51747.50
627.27	51666.73
627.47	52007.51
627.67	51784.69
627.87	51882.83
628.07	52362.14
628.27	52242.45
628.47	52051.50
628.67	52726.51
628.86	52787.79
629.06	52453.15
629.26	52460.85
629.46	53142.41
629.66	53079.42
629.86	52619.69
630.06	53177.47
630.26	53123.00
630.46	53575.44
630.66	53068.36
630.86	53381.12
631.06	53496.38
631.26	53325.91
631.46	53908.27
631.66	53835.04
631.86	53580.68
632.06	54218.25
632.26	54107.50
632.45	54212.76
632.65	54476.62
632.85	54688.88
633.05	54564.93
633.25	54847.14
633.45	54672.82
633.65	54870.08
633.85	55543.78
634.05	54748.84
634.25	55098.47
634.45	55261.90
634.65	55693.45
634.84	55331.12
635.04	55589.41
635.24	55303.10
635.44	55757.42
635.64	55582.53
635.84	56045.45
636.04	56016.53
636.24	56167.59
636.44	56430.06
636.64	55823.04
636.84	56972.36
637.03	56428.91
637.23	56856.28
637.43	56946.56
637.63	56773.71
637.83	57188.95
638.03	57313.88
638.23	56919.77
638.43	57461.25
638.62	57903.78
638.82	56885.77
639.02	57850.78
639.22	57610.02
639.42	58016.33
639.62	57626.15
639.82	57898.21
640.02	58087.93
640.21	58335.00
640.41	57722.16
640.61	58388.90
640.81	58382.43
641.01	58431.99
641.21	58504.73
641.41	59148.12
641.61	58593.45
641.80	58750.57
642.00	59250.28
642.20	59380.85
642.40	58656.77
642.60	59311.71
642.80	59583.60
642.99	59183.59
643.19	59826.49
643.39	59262.73
643.59	59790.53
643.79	59811.09
643.99	60081.34
644.19	60006.63
644.38	59646.35
644.58	60088.47
644.78	59917.59
644.98	59915.05
645.18	60381.90
645.38	60714.33
645.57	60371.33
645.77	60540.17
645.97	60497.41
646.17	60915.03
646.37	60860.96
646.56	60650.51
646.76	60824.43
646.96	60804.68
647.16	60540.82
647.36	60834.75
647.55	60751.11
647.75	60836.22
647.95	60472.50
648.15	60929.04
648.35	60902.09
648.55	61213.95
648.74	61037.41
648.94	61095.41
649.14	61468.14
649.34	60860.22
649.54	60854.65
649.73	61064.86
649.93	60773.39
650.13	61117.12
650.33	60905.44
650.52	61452.91
650.72	61804.09
650.92	61363.94
651.12	61211.66
651.32	61559.73
651.51	61657.38
651.71	61769.36
651.91	61366.81
652.11	61185.77
652.30	61036.02
652.50	61568.66
652.70	61610.27
652.90	61034.47
653.10	61542.20
653.29	61272.60
653.49	61642.96
653.69	61182.41
653.89	61410.64
654.08	61293.98
654.28	61743.96
654.48	61395.48
654.68	61630.10
654.87	61542.20
655.07	61207.89
655.27	61747.65
655.47	61287.10
655.66	61259.74
655.86	61094.68
656.06	61585.04
656.26	60575.39
656.45	60985.97
656.65	60974.75
656.85	60860.22
657.04	60469.96
657.24	60487.25
657.44	60322.59
657.64	61024.39
657.83	59963.54
658.03	60805.50
658.23	60513.30
658.43	60368.22
658.62	60448.26
658.82	60178.58
659.02	60131.39
659.21	60230.19
659.41	59735.81
659.61	60335.21
659.81	59739.58
660.00	59560.91
660.20	59743.10
660.40	59523.23
660.59	59740.72
660.79	59278.62
660.99	59579.34
661.19	59501.11
661.38	59382.49
661.58	58658.17
661.78	59050.72
661.97	58621.88
662.17	59321.87
662.37	58600.00
662.56	58525.13
662.76	58483.60
662.96	58571.33
663.15	58717.07
663.35	58569.20
663.55	58080.72
663.74	57820.79
663.94	58160.67
664.14	57543.58
664.33	57836.03
664.53	57583.31
664.73	57890.26
664.93	57126.78
665.12	57633.45
665.32	57304.87
665.52	57307.98
665.71	56890.44
665.91	56944.10
666.10	56651.57
666.30	56929.68
666.50	56366.00
666.69	56252.95
666.89	56599.06
667.09	56760.44
667.28	56066.67
667.48	55883.74
667.68	55840.49
667.87	55860.64
668.07	55357.17
668.27	55744.15
668.46	55568.85
668.66	55223.23
668.86	55672.47
669.05	55210.78
669.25	55431.63
669.44	54940.61
669.64	54846.08
669.84	54788.90
670.03	54915.54
670.23	54328.02
670.43	54247.33
670.62	54186.39
670.82	53964.88
671.01	54155.83
671.21	53706.42
671.41	53739.76
671.60	54021.16
671.80	54019.85
672.00	53523.25
672.19	53808.09
672.39	53495.40
672.58	53242.76
672.78	53017.00
672.98	53311.17
673.17	52887.48
673.37	52097.95
673.56	52329.86
673.76	52436.19
673.96	52434.06
674.15	52111.30
674.35	52093.61
674.54	51950.74
674.74	51845.80
674.94	51682.95
675.13	51773.55
675.33	51174.23
675.52	51694.09
675.72	51377.64
675.91	51277.37
676.11	51688.77
676.31	51020.72
676.50	51009.09
676.70	50973.29
676.89	50841.07
677.09	50966.65
677.28	50846.07
677.48	50112.08
677.68	50569.84
677.87	50174.82
678.07	49900.72
678.26	49824.21
678.46	49863.94
678.65	49518.57
678.85	49824.62
679.04	49106.60
679.24	49301.73
679.44	48963.74
679.63	49145.84
679.83	48895.34
680.02	48814.97
680.22	48492.87
680.41	48705.04
680.61	48321.49
680.80	48195.50
681.00	48205.09
681.19	48102.12
681.39	47804.01
681.59	47661.39
681.78	47488.87
681.98	47881.18
682.17	47198.14
682.37	47658.69
682.56	47261.88
682.76	47507.39
682.95	47217.23
683.15	47114.34
683.34	46883.82
683.54	46905.45
683.73	46935.27
683.93	46318.58
684.12	46645.60
684.32	46671.24
684.51	46077.58
684.71	46358.72
684.90	46147.62
685.10	46056.69
685.29	45753.83
685.49	45923.49
685.68	45822.32
685.88	45594.42
686.07	45355.95
686.27	45662.17
686.46	45450.08
686.66	45194.33
686.85	45383.48
687.05	45123.06
687.24	45026.23
687.44	45201.87
687.63	44948.33
687.83	44415.04
688.02	44788.26
688.22	44871.65
688.41	44396.03
688.61	44493.27
688.80	44618.85
689.00	44176.65
689.19	43910.25
689.39	44442.97
689.58	44271.51
689.77	44164.53
689.97	44309.11
690.16	43929.59
690.36	43553.25
690.55	43335.92
690.75	43895.34
690.94	43370.00
691.14	43563.57
691.33	42975.40
691.53	43295.04
691.72	43101.14
691.91	43122.28
692.11	43061.16
692.30	43167.82
692.50	43250.15
692.69	42730.62
692.89	42771.66
693.08	42658.53
693.28	42503.87
693.47	42611.43
693.66	42450.54
693.86	42285.80
694.05	42314.97
694.25	42252.54
694.44	42466.19
694.64	42354.29
694.83	42208.64
695.02	42215.84
695.22	42330.78
695.41	41914.30
695.61	41722.86
695.80	41684.93
695.99	41672.15
696.19	41739.49
696.38	41682.96
696.58	41259.20
696.77	41787.82
696.96	41640.20
697.16	41444.66
697.35	41426.31
697.55	41429.10
697.74	41165.48
697.93	41593.67
698.13	41046.54
698.32	41311.87
698.52	41052.52
698.71	40564.04
698.90	41261.82
699.10	40853.86
699.29	40877.46
699.49	41298.93
699.68	40936.52
699.87	40979.04
700.07	41283.94
700.26	40995.91
700.45	40853.45
700.65	40495.06
700.84	40890.48
701.04	40544.37
701.23	40605.32
701.42	40317.30
701.62	40217.93
701.81	40330.65
702.00	40155.26
702.20	39937.27
702.39	40153.46
702.58	40401.75
702.78	40187.37
702.97	40231.61
703.17	40258.89
703.36	40246.76
703.55	40039.76
703.75	39960.38
703.94	40101.93
704.13	39799.57
704.33	39659.73
704.52	40016.74
704.71	39922.37
704.91	40072.03
705.10	39872.07
705.29	40072.77
705.49	40079.08
705.68	40147.31
705.87	40072.60
706.07	39704.95
706.26	40000.76
706.45	39513.84
706.65	39392.02
706.84	39785.56
707.03	40035.09
707.23	39359.99
707.42	39298.72
707.61	39712.49
707.80	39395.71
708.00	39401.77
708.19	39304.29
708.38	39707.16
708.58	39053.78
708.77	39672.92
708.96	39323.87
709.16	39206.23
709.35	39986.84
709.54	39540.05
709.74	39395.05
709.93	39202.38
710.12	39784.50
710.31	39859.12
710.51	39416.76
710.70	39482.46
710.89	39543.00
711.09	39087.29
711.28	39050.09
711.47	39370.23
711.66	39219.50
711.86	39217.78
712.05	39237.12
712.24	39430.28
712.43	39078.77
712.63	38677.94
712.82	39291.67
713.01	39097.53
713.21	38865.45
713.40	38971.13
713.59	39342.79
713.78	38783.69
713.98	39269.96
714.17	39018.88
714.36	39208.94
714.55	38704.73
714.75	38927.38
714.94	39046.33
715.13	39179.69
715.32	38776.90
715.52	39079.67
715.71	38852.34
715.90	39006.43
716.09	38862.01
716.29	39181.49
716.48	39175.10
716.67	38734.38
716.86	39184.03
717.06	39100.80
717.25	39226.22
717.44	39366.14
717.63	39359.58
717.82	38844.89
718.02	39114.07
718.21	39256.45
718.40	39319.85
718.59	39105.80
718.79	38878.15
718.98	38913.78
719.17	39090.89
719.36	39184.36
719.55	39010.45
719.75	38944.26
719.94	39002.17
720.13	39280.53
720.32	39137.42
720.51	38904.03
720.71	38889.04
720.90	38514.92
721.09	38797.29
721.28	38758.79
721.47	39150.77
721.67	38998.32
721.86	39056.32
722.05	39045.51
722.24	38803.03
722.43	39295.85
722.63	39008.89
722.82	39229.17
723.01	39281.35
723.20	38893.96
723.39	38918.45
723.58	39175.35
723.78	38722.17
723.97	39362.78
724.16	38937.13
724.35	39053.70
724.54	38797.05
724.73	39141.60
724.93	39013.56
725.12	39216.39
725.31	38546.29
725.50	38962.69
725.69	39200.25
725.88	38994.80
726.08	38705.63
726.27	39199.19
726.46	38591.10
726.65	39333.45
726.84	38773.37
727.03	38971.21
727.23	39373.35
727.42	38985.38
727.61	38966.87
727.80	38866.19
727.99	39033.38
728.18	39078.03
728.37	38898.95
728.56	38798.77
728.76	38684.98
728.95	38942.70
729.14	38862.26
729.33	38806.63
729.52	39003.40
729.71	39007.50
729.90	38954.74
730.09	38810.56
730.29	39135.04
730.48	38665.08
730.67	39184.52
730.86	38788.36
731.05	39256.12
731.24	38973.50
731.43	39126.28
731.62	38951.22
731.81	39077.29
732.01	39541.93
732.20	39105.55
732.39	39408.41
732.58	39315.59
732.77	38664.99
732.96	39248.26
733.15	39336.07
733.34	39009.46
733.53	39078.44
733.72	39398.58
733.92	39262.10
734.11	39139.96
734.30	39293.64
734.49	39607.96
734.68	39356.55
734.87	39283.40
735.06	39271.19
735.25	39343.86
735.44	39038.38
735.63	39200.66
735.82	39308.88
736.01	39146.59
736.20	39166.83
736.40	39409.80
736.59	39307.73
736.78	39532.92
736.97	39137.01
737.16	39227.86
737.35	39370.48
737.54	39455.43
737.73	39240.64
737.92	39532.10
738.11	39625.57
738.30	39393.99
738.49	39370.40
738.68	39258.41
738.87	39323.29
739.06	39136.93
739.25	39315.02
739.44	39262.76
739.63	39098.10
739.82	38932.95
740.01	39314.04
740.20	39005.86
740.39	39131.52
740.59	39275.29
740.78	39344.02
740.97	39058.45
741.16	38963.51
741.35	39224.75
741.54	39111.70
741.73	39177.72
741.92	39040.02
742.11	39231.95
742.30	39295.20
742.49	39001.03
742.68	39304.29
742.87	39145.37
743.06	38786.64
743.25	39023.47
743.44	38834.65
743.63	39110.71
743.82	38754.12
744.01	38901.58
744.20	38535.56
744.39	38961.38
744.58	38812.45
744.77	38678.18
744.96	38376.48
745.15	38871.92
745.34	38568.17
745.53	38795.74
745.72	38478.22
745.91	38628.87
746.10	38393.27
746.29	38771.16
746.48	38671.88
746.67	38511.64
746.86	38587.25
747.04	38545.64
747.23	38357.39
747.42	38764.61
747.61	38380.16
747.80	38883.55
747.99	38178.07
748.18	38648.37
748.37	38511.89
748.56	37973.11
748.75	38233.61
748.94	38213.87
749.13	38288.33
749.32	38001.13
749.51	38123.92
749.70	38225.09
749.89	37994.41
750.08	38028.57
750.27	37534.11
750.46	37853.51
750.65	38179.95
750.84	37685.82
751.02	37844.25
751.21	37643.39
751.40	37818.04
751.59	37895.86
751.78	37741.77
751.97	37879.80
752.16	37586.62
752.35	37880.70
752.54	37376.00
752.73	37679.51
752.92	37225.11
753.11	37255.99
753.30	37364.94
753.49	37499.62
753.67	37265.99
753.86	37069.55
754.05	37310.55
754.24	36984.84
754.43	37034.89
754.62	37040.87
754.81	36720.41
755.00	36950.44
755.19	36835.01
755.38	36495.79
755.56	36878.35
755.75	37093.96
755.94	36539.61
756.13	36645.53
756.32	36738.18
756.51	36453.52
756.70	36595.24
756.89	36503.81
757.08	36450.98
757.26	36453.43
757.45	36381.43
757.64	36147.71
757.83	36422.71
758.02	36109.29
758.21	35946.93
758.40	36078.00
758.59	36016.15
758.77	35832.74
758.96	35841.58
759.15	35924.40
759.34	35650.96
759.53	35758.03
759.72	35612.21
759.91	35308.21
760.09	35496.46
760.28	35520.63
760.47	35051.64
760.66	35507.11
760.85	34910.82
761.04	35347.04
761.23	35127.99
761.41	35207.94
761.60	35273.89
761.79	35051.39
761.98	34715.94
762.17	35172.63
762.36	34811.95
762.54	35048.94
762.73	34816.53
762.92	34613.95
763.11	34941.46
763.30	34959.48
763.49	34782.78
763.67	34636.56
763.86	34723.15
764.05	34795.81
764.24	34513.76
764.43	34766.97
764.61	34155.86
764.80	34116.54
764.99	34431.76
765.18	33966.63
765.37	34007.59
765.55	34037.32
765.74	33807.95
765.93	33582.67
766.12	33820.48
766.31	33622.40
766.49	33576.45
766.68	33626.09
766.87	33483.22
767.06	33263.35
767.25	33409.09
767.43	33344.95
767.62	33153.91
767.81	33331.10
768.00	33044.96
768.19	32916.18
768.37	32990.56
768.56	33005.80
768.75	32962.30
768.94	32949.61
769.12	32585.31
769.31	32596.62
769.50	32563.69
769.69	32616.85
769.88	32123.86
770.06	32685.66
770.25	32175.64
770.44	32091.92
770.63	32333.33
770.81	32079.46
771.00	31923.82
771.19	32033.84
771.38	31939.22
771.56	32019.25
771.75	31432.88
771.94	31826.58
772.13	31715.66
772.31	31490.71
772.50	31841.74
772.69	31518.89
772.88	31868.11
773.06	31316.23
773.25	31430.67
773.44	31302.79
773.62	31208.01
773.81	31216.86
774.00	30949.15
774.19	31060.07
774.37	30858.79
774.56	31108.15
774.75	30616.56
774.94	30933.83
775.12	30576.17
775.31	30737.39
775.50	30585.35
775.68	30447.64
775.87	30325.17
776.06	30083.60
776.25	30261.61
776.43	30100.06
776.62	30322.80
776.81	29850.05
776.99	30011.02
777.18	29857.17
777.37	29598.64
777.55	29772.14
777.74	29804.09
777.93	29694.73
778.12	29663.35
778.30	29400.64
778.49	29483.30
778.68	29510.49
778.86	29335.60
779.05	29501.56
779.24	29440.78
779.42	29207.39
779.61	29065.92
779.80	29128.42
779.98	29285.95
780.17	29331.58
780.36	28841.87
780.54	29139.15
780.73	28527.88
780.92	28962.54
781.10	28678.03
781.29	28540.66
781.48	28384.44
781.66	28495.93
781.85	28483.64
782.04	28183.08
782.22	28368.79
782.41	28102.47
782.60	28263.53
782.78	28188.24
782.97	28232.15
783.16	27800.52
783.34	27792.98
783.53	27829.03
783.71	27608.26
783.90	27551.32
784.09	27534.78
784.27	27456.95
784.46	27428.86
784.65	27522.57
784.83	27256.09
785.02	27189.73
785.20	27513.15
785.39	26957.99
785.58	27316.22
785.76	27118.46
785.95	27094.79
786.14	27164.09
786.32	27064.97
786.51	26975.76
786.69	27187.03
786.88	27030.07
787.07	26935.95
787.25	26993.70
787.44	26913.01
787.62	26880.90
787.81	26920.39
788.00	26818.89
788.18	26578.70
788.37	26530.12
788.55	26897.94
788.74	26609.09
788.93	26696.17
789.11	26792.10
789.30	26572.72
789.48	26354.98
789.67	26616.88
789.86	26464.84
790.04	26537.42
790.23	26428.38
790.41	26260.78
790.60	26396.76
790.78	26387.34
790.97	26007.40
791.16	26228.75
791.34	26452.55
791.53	25977.99
791.71	26380.46
791.90	26032.22
792.08	26060.73
792.27	26010.76
792.46	26062.45
792.64	26115.29
792.83	25959.81
793.01	26054.01
793.20	25941.37
793.38	25849.13
793.57	25881.66
793.75	25876.41
793.94	25928.68
794.12	26082.03
794.31	25877.89
794.50	25928.35
794.68	26080.88
794.87	25827.10
795.05	26100.05
795.24	25885.92
795.42	25795.89
795.61	26113.98
795.79	26108.49
795.98	25733.06
796.16	25881.41
796.35	25875.43
796.53	25626.56
796.72	25809.65
796.90	25763.28
797.09	25681.12
797.27	25584.13
797.46	25554.47
797.64	25669.90
797.83	25563.48
798.01	25678.82
798.20	25753.13
798.38	25475.26
798.57	25716.92
798.75	25519.17
798.94	25209.51
799.12	25832.59
799.31	25478.86
799.49	25385.56
799.68	25212.95
799.86	25219.42
800.05	25254.81
800.23	25229.58
800.42	25117.85
800.60	25342.06
800.79	24991.12
800.97	25097.69
801.16	25327.48
801.34	24950.08
801.53	24994.31
801.71	24999.23
801.90	24827.28
802.08	25136.44
802.27	24975.39
802.45	24872.58
802.64	24983.83
802.82	25023.23
803.00	24660.33
803.19	24740.77
803.37	24954.91
803.56	24664.67
803.74	24629.20
803.93	24693.18
804.11	24533.35
804.30	24439.72
804.48	24594.79
804.67	24566.20
804.85	24502.96
805.03	24637.23
805.22	24389.67
805.40	24219.36
805.59	24410.31
805.77	24370.58
805.96	24238.53
806.14	24284.73
806.32	24331.43
806.51	24558.18
806.69	24327.82
806.88	24222.23
807.06	24224.93
807.25	24222.47
807.43	24124.42
807.61	24142.36
807.80	24019.07
807.98	24222.47
808.17	23950.67
808.35	23890.70
808.53	24140.39
808.72	23941.66
808.90	23880.95
809.09	23910.44
809.27	23815.17
809.45	23636.67
809.64	23783.47
809.82	23638.88
810.01	23597.68
810.19	23679.52
810.37	23542.96
810.56	23475.78
810.74	23632.74
810.93	23359.38
811.11	23426.63
811.29	23317.68
811.48	23394.68
811.66	23391.90
811.84	23260.58
812.03	23234.86
812.21	23258.37
812.40	23371.01
812.58	23403.20
812.76	23226.59
812.95	23345.78
813.13	23071.35
813.31	23161.87
813.50	23210.69
813.68	23140.57
813.86	23194.47
814.05	23275.08
814.23	22933.24
814.42	23000.74
814.60	22876.47
814.78	23017.94
814.97	22878.51
815.15	22874.17
815.33	22930.20
815.52	22802.82
815.70	22814.86
815.88	22858.69
816.07	22599.17
816.25	22644.80
816.43	22574.35
816.62	22440.90
816.80	22476.05
816.98	22470.15
817.17	22470.89
817.35	22475.88
817.53	22487.43
817.72	22641.11
817.90	22316.31
818.08	22346.29
818.26	22436.15
818.45	22244.46
818.63	22423.62
818.81	22396.26
819.00	22111.18
819.18	22347.76
819.36	22315.73
819.55	22358.58
819.73	22179.34
819.91	22330.48
820.09	22197.52
820.28	22349.89
820.46	22189.25
820.64	22408.87
820.83	22129.53
821.01	22176.88
821.19	22102.66
821.38	22170.16
821.56	22040.32
821.74	22121.50
821.92	21928.17
822.11	22154.68
822.29	21838.23
822.47	21884.68
822.65	21978.47
822.84	22005.42
823.02	21705.27
823.20	21973.07
823.39	21762.78
823.57	21804.48
823.75	21844.13
823.93	21738.61
824.12	21718.95
824.30	21654.07
824.48	21639.49
824.66	21818.40
824.85	21341.31
825.03	21654.32
825.21	21761.39
825.39	21635.23
825.58	21656.12
825.76	21546.92
825.94	21576.25
826.12	21459.93
826.31	21395.87
826.49	21476.07
826.67	21482.78
826.85	21422.16
827.03	21475.49
827.22	21612.13
827.40	21359.66
827.58	21361.54
827.76	21422.24
827.95	21294.21
828.13	21355.73
828.31	21364.25
828.49	21432.07
828.67	21293.63
828.86	21161.09
829.04	21178.70
829.22	21120.95
829.40	21052.95
829.58	21024.12
829.77	21040.99
829.95	21079.01
830.13	21043.04
830.31	20972.51
830.49	21035.67
830.68	21150.03
830.86	21066.80
831.04	20942.94
831.22	21039.93
831.40	21007.00
831.59	21149.86
831.77	20956.45
831.95	21017.16
832.13	20789.42
832.31	20851.11
832.50	20837.43
832.68	20717.09
832.86	20756.90
833.04	20846.60
833.22	20555.05
833.40	20911.07
833.59	20616.90
833.77	20883.87
833.95	20400.23
834.13	20979.15
834.31	20702.34
834.49	20731.10
834.67	20781.64
834.86	20790.08
835.04	20670.56
835.22	20798.84
835.40	20763.45
835.58	20680.88
835.76	20733.72
835.95	20751.82
836.13	20674.65
836.31	20567.67
836.49	20761.32
836.67	20770.42
836.85	20707.26
837.03	20624.36
837.21	20647.29
837.40	20537.52
837.58	20366.48
837.76	20525.89
837.94	20483.62
838.12	20635.50
838.30	20424.31
838.48	20463.71
838.66	20416.86
838.85	20373.77
839.03	20402.44
839.21	20362.54
839.39	20305.61
839.57	20384.50
839.75	20235.32
839.93	20318.80
840.11	20274.24
840.29	20256.95
840.47	20302.58
840.66	20323.14
840.84	20276.04
841.02	20192.48
841.20	20255.15
841.38	20191.33
841.56	20207.06
841.74	20428.73
841.92	20178.55
842.10	20170.69
842.28	20334.69
842.46	20206.32
842.65	20232.70
842.83	20342.80
843.01	20432.83
843.19	20162.25
843.37	20396.79
843.55	20267.11
843.73	20299.22
843.91	20354.60
844.09	20158.24
844.27	20317.82
844.45	20064.36
844.63	20055.27
844.81	20112.28
844.99	20096.80
845.17	20022.25
845.35	20139.23
845.54	20029.46
845.72	20023.32
845.90	20024.06
846.08	20104.50
846.26	19921.82
846.44	20128.83
846.62	19953.03
846.80	19977.61
846.98	20018.24
847.16	20049.45
847.34	20046.09
847.52	20035.28
847.70	19937.88
847.88	20063.95
848.06	19954.18
848.24	20042.65
848.42	20091.64
848.60	19924.85
848.78	20071.16
848.96	19981.29
849.14	19949.76
849.32	20093.93
849.50	19923.13
849.68	20043.96
849.86	20025.37
850.04	19881.03
850.22	19872.92
850.40	19746.27
850.58	19879.80
850.76	20197.31
850.94	19629.37
851.12	19920.92
851.30	19762.73
851.48	19907.08
851.66	19733.90
851.84	19737.01
852.02	19683.11
852.20	19836.38
852.38	19606.60
852.56	19756.02
852.74	19718.50
852.92	19647.64
853.10	19521.57
853.28	19661.97
853.46	19364.61
853.64	19599.22
853.82	19501.17
854.00	19563.67
854.18	19479.62
854.36	19416.63
854.54	19516.24
854.72	19408.19
854.90	19418.59
855.07	19512.72
855.25	19475.12
855.43	19527.30
855.61	19509.20
855.79	19426.05
855.97	19545.65
856.15	19596.36
856.33	19473.56
856.51	19653.45
856.69	19440.55
856.87	19671.07
857.05	19500.43
857.23	19546.47
857.41	19354.53
857.59	19398.85
857.77	19457.75
857.94	19430.14
858.12	19489.95
858.30	19338.07
858.48	19365.51
858.66	19246.32
858.84	19444.07
859.02	19188.57
859.20	19135.81
859.38	19369.93
859.56	19260.82
859.74	19222.15
859.92	19256.97
860.09	19132.12
860.27	19286.46
860.45	19060.20
860.63	19169.64
860.81	19319.80
860.99	19179.47
861.17	19012.44
861.35	18691.40
861.53	18656.01
861.70	18600.88
861.88	18998.51
862.06	18965.83
862.24	18753.74
862.42	18721.30
862.60	18978.44
862.78	19018.26
862.96	19063.48
863.14	18962.31
863.31	19078.63
863.49	18972.05
863.67	18979.26
863.85	18964.27
864.03	19047.83
864.21	19050.78
864.39	19067.41
864.56	18916.19
864.74	19010.15
864.92	18877.85
865.10	18846.80
865.28	18852.37
865.46	19022.52
865.64	18711.72
865.81	18901.52
865.99	18634.55
866.17	18949.61
866.35	18786.43
866.53	18776.92
866.71	18829.43
866.88	18798.63
867.06	18646.92
867.24	18731.13
867.42	18643.56
867.60	18730.31
867.78	18585.73
867.95	18729.33
868.13	18590.40
868.31	18709.01
868.49	18689.84
868.67	18590.97
868.84	18454.98
869.02	18640.37
869.20	18217.09
869.38	18531.99
869.56	18367.74
869.73	18228.07
869.91	18397.80
870.09	18365.20
870.27	18304.34
870.45	18378.96
870.62	18204.07
870.80	18388.06
870.98	18287.30
871.16	18384.70
871.34	18333.66
871.51	18397.80
871.69	18246.66
871.87	18281.40
872.05	18202.84
872.23	18267.47
872.40	18083.73
872.58	18222.42
872.76	18070.38
872.94	18098.96
873.11	18144.68
873.29	17966.91
873.47	18054.40
873.65	18002.14
873.83	17979.04
874.00	18004.02
874.18	18102.65
874.36	18000.50
874.54	18078.24
874.71	17933.82
874.89	17776.78
875.07	17914.07
875.25	17901.38
875.42	17882.62
875.60	17853.62
875.78	18036.87
875.96	17833.71
876.13	18018.85
876.31	17820.03
876.49	17822.98
876.66	17691.01
876.84	17947.91
877.02	17773.50
877.20	17758.59
877.37	17862.55
877.55	17777.35
877.73	17691.83
877.91	17700.27
878.08	17795.95
878.26	17798.00
878.44	17818.31
878.61	17827.40
878.79	17673.07
878.97	17730.17
879.15	17838.79
879.32	17783.58
879.50	17713.78
879.68	17855.99
879.85	17623.26
880.03	17833.47
880.21	17677.66
880.38	17813.81
880.56	17676.92
880.74	17857.88
880.92	17649.39
881.09	17740.24
881.27	17724.60
881.45	17705.18
881.62	17599.18
881.80	17610.16
881.98	17555.43
882.15	17723.12
882.33	17573.95
882.51	17614.66
882.68	17514.31
882.86	17740.16
883.04	17472.70
883.21	17589.68
883.39	17687.08
883.57	17526.03
883.74	17559.53
883.92	17621.62
884.10	17620.81
884.27	17612.04
884.45	17489.74
884.63	17671.68
884.80	17625.56
884.98	17649.80
885.16	17610.16
885.33	17688.96
885.51	17737.70
885.69	17727.46
885.86	17632.68
886.04	17762.03
886.21	17521.44
886.39	17723.53
886.57	17460.74
886.74	17721.57
886.92	17649.31
887.10	17736.88
887.27	17667.58
887.45	17735.49
887.62	17718.37
887.80	17726.81
887.98	17890.15
888.15	17814.79
888.33	17626.62
888.51	17894.91
888.68	17735.00
888.86	17752.28
889.03	17667.99
889.21	17760.64
889.39	17836.42
889.56	17793.57
889.74	17769.24
889.91	17800.04
890.09	17750.40
890.27	17804.96
890.44	17818.80
890.62	17821.18
890.79	17846.16
890.97	17865.09
891.14	17782.68
891.32	17910.55
891.50	17785.22
891.67	17922.76
891.85	17828.96
892.02	17840.35
892.20	18014.67
892.38	17839.45
892.55	17812.90
892.73	17875.49
892.90	17707.88
893.08	17823.80
893.25	17757.77
893.43	17894.41
893.60	17695.19
893.78	17738.69
893.96	17652.26
894.13	17763.26
894.31	17795.78
894.48	17628.75
894.66	17719.60
894.83	17736.47
895.01	17722.79
895.18	17769.32
895.36	17678.97
895.53	17810.28
895.71	17677.90
895.89	17778.74
896.06	17615.97
896.24	17767.52
896.41	17670.78
896.59	17784.64
896.76	17584.02
896.94	17680.61
897.11	17682.57
897.29	17722.55
897.46	17578.62
897.64	17625.39
897.81	17571.74
897.99	17398.97
898.16	17745.65
898.34	17577.39
898.51	17562.64
898.69	17437.55
898.86	17581.07
899.04	17559.69
899.21	17443.61
899.39	17510.62
899.56	17405.77
899.74	17614.99
899.91	17450.99
900.09	17276.66
900.26	17363.17
900.44	17228.91
900.61	17281.91
900.79	17400.03
900.96	17297.14
901.14	17290.67
901.31	17224.81
901.49	17191.80
901.66	17277.73
901.84	17230.71
902.01	17154.61
902.19	17181.23
902.36	17089.07
902.54	17062.94
902.71	17081.78
902.88	17094.97
903.06	16851.51
903.23	17142.81
903.41	16941.04
903.58	16874.28
903.76	16804.48
903.93	16909.18
904.11	16980.28
904.28	16859.62
904.45	16852.98
904.63	16788.10
904.80	16606.00
904.98	16736.74
905.15	16606.49
905.33	16662.44
905.50	16558.56
905.68	16565.61
905.85	16497.45
906.02	16451.91
906.20	16546.69
906.37	16312.23
906.55	16244.98
906.72	16434.21
906.90	16257.35
907.07	16136.60
907.24	16229.99
907.42	16114.56
907.59	16043.30
907.77	15965.06
907.94	15927.30
908.11	15919.35
908.29	15828.83
908.46	15820.80
908.64	15734.46
908.81	15732.74
908.98	15582.34
909.16	15702.76
909.33	15597.08
909.51	15539.25
909.68	15479.86
909.85	15462.82
910.03	15400.97
910.20	15315.61
910.37	15325.69
910.55	15300.54
910.72	15224.27
910.90	15195.03
911.07	15124.09
911.24	15021.36
911.42	15188.64
911.59	14999.65
911.76	14985.07
911.94	14867.35
912.11	14892.91
912.29	14861.37
912.46	14778.06
912.63	14783.63
912.81	14643.55
912.98	14772.49
913.15	14560.73
913.33	14656.41
913.50	14591.45
913.67	14514.28
913.85	14483.56
914.02	14462.84
914.19	14419.99
914.37	14390.34
914.54	14436.95
914.71	14346.35
914.89	14374.94
915.06	14331.44
915.23	14228.80
915.41	14145.65
915.58	14140.24
915.75	14033.50
915.93	14040.63
916.10	13937.98
916.27	13881.30
916.45	13913.74
916.62	13810.27
916.79	13844.60
916.97	13757.52
917.14	13733.60
917.31	13645.21
917.49	13640.86
917.66	13634.39
917.83	13566.56
918.00	13496.85
918.18	13462.86
918.35	13368.98
918.52	13417.55
918.70	13274.61
918.87	13230.53
919.04	13224.39
919.21	13181.46
919.39	13040.48
919.56	13147.30
919.73	12987.23
919.91	13031.72
920.08	13005.09
920.25	12851.17
920.42	12980.93
920.60	12843.06
920.77	12730.42
920.94	12812.58
921.11	12673.65
921.29	12726.24
921.46	12552.00
921.63	12673.49
921.81	12541.92
921.98	12489.99
922.15	12481.80
922.32	12525.70
922.50	12395.13
922.67	12373.66
922.84	12299.28
923.01	12193.52
923.19	12168.70
923.36	12200.24
923.53	12015.92
923.70	12119.31
923.87	12052.38
924.05	12060.65
924.22	11922.45
924.39	11977.50
924.56	11779.59
924.74	11871.26
924.91	11858.72
925.08	11791.79
925.25	11781.64
925.43	11739.45
925.60	11613.62
925.77	11727.08
925.94	11643.60
926.11	11573.81
926.29	11522.53
926.46	11545.14
926.63	11542.52
926.80	11481.49
926.97	11367.70
927.15	11459.70
927.32	11286.77
927.49	11259.65
927.66	11255.06
927.83	11236.79
928.01	11145.62
928.18	11093.11
928.35	10968.35
928.52	11056.33
928.69	10937.30
928.87	10904.94
929.04	10879.14
929.21	10909.94
929.38	10806.15
929.55	10796.73
929.72	10698.26
929.90	10731.85
930.07	10711.29
930.24	10627.65
930.41	10587.83
930.58	10559.41
930.75	10588.33
930.93	10487.65
931.10	10484.54
931.27	10408.84
931.44	10408.43
931.61	10362.56
931.78	10385.82
931.95	10322.83
932.13	10249.26
932.30	10323.89
932.47	10168.41
932.64	10226.57
932.81	10165.87
932.98	10124.99
933.15	10135.97
933.33	10035.05
933.50	10101.73
933.67	9989.09
933.84	9993.19
934.01	9998.67
934.18	9989.01
934.35	9972.30
934.52	9913.15
934.70	9912.25
934.87	9889.23
935.04	9823.29
935.21	9807.07
935.38	9744.64
935.55	9721.22
935.72	9765.45
935.89	9615.87
936.06	9649.05
936.24	9595.88
936.41	9652.90
936.58	9526.58
936.75	9527.64
936.92	9467.19
937.09	9491.84
937.26	9399.19
937.43	9434.17
937.60	9443.51
937.77	9372.49
937.94	9340.29
938.12	9334.07
938.29	9255.84
938.46	9278.20
938.63	9171.13
938.80	9195.79
938.97	9118.38
939.14	9110.92
939.31	9055.79
939.48	9106.09
939.65	8984.68
939.82	9016.22
939.99	9032.53
940.16	8984.85
940.33	8980.83
940.50	8967.56
940.67	8908.75
940.85	8890.81
941.02	8847.39
941.19	8836.17
941.36	8792.18
941.53	8795.78
941.70	8818.55
941.87	8684.70
942.04	8678.14
942.21	8649.15
942.38	8612.69
942.55	8511.28
942.72	8572.72
942.89	8551.09
943.06	8464.42
943.23	8455.16
943.40	8389.71
943.57	8401.01
943.74	8427.80
943.91	8378.49
944.08	8374.39
944.25	8388.23
944.42	8297.63
944.59	8275.02
944.76	8299.60
944.93	8286.25
945.10	8257.90
945.27	8247.91
945.44	8152.64
945.61	8191.38
945.78	8122.08
945.95	8147.80
946.12	8042.54
946.29	8103.81
946.46	8066.62
946.63	8047.86
946.80	8038.03
946.97	7968.81
947.14	7921.38
947.31	7994.12
947.48	7906.80
947.65	7867.72
947.82	7898.20
947.99	7882.47
948.16	7862.48
948.33	7890.17
948.50	7779.99
948.67	7788.92
948.84	7763.03
949.01	7741.40
949.18	7719.45
949.35	7732.80
949.52	7642.69
949.68	7655.39
949.85	7667.19
950.02	7623.60
950.19	7601.32
950.36	7543.16
950.53	7576.58
950.70	7497.20
950.87	7500.97
951.04	7553.73
951.21	7469.27
951.38	7429.95
951.55	7442.73
951.72	7457.47
951.89	7373.18
952.06	7380.72
952.23	7352.62
952.39	7325.83
952.56	7272.26
952.73	7309.69
952.90	7230.64
953.07	7269.88
953.24	7215.65
953.41	7221.14
953.58	7153.39
953.75	7208.11
953.92	7133.81
954.09	7127.26
954.25	7097.28
954.42	7079.17
954.59	7059.84
954.76	7030.19
954.93	6995.29
955.10	7045.91
955.27	6990.70
955.44	6960.31
955.61	6948.27
955.77	6983.98
955.94	6913.45
956.11	6937.70
956.28	6925.08
956.45	6947.20
956.62	6921.15
956.79	6903.70
956.96	6902.64
957.12	6856.60
957.29	6845.79
957.46	6837.43
957.63	6797.95
957.80	6783.28
957.97	6775.75
958.14	6804.25
958.30	6726.27
958.47	6743.96
958.64	6689.81
958.81	6736.51
958.98	6660.98
959.15	6667.29
959.32	6647.38
959.48	6652.29
959.65	6569.06
959.82	6623.87
959.99	6538.35
960.16	6579.22
960.33	6543.67
960.49	6504.92
960.66	6519.42
960.83	6496.48
961.00	6479.36
961.17	6479.28
961.33	6424.89
961.50	6459.38
961.67	6419.56
961.84	6437.91
962.01	6383.44
962.18	6415.38
962.34	6365.33
962.51	6382.54
962.68	6326.01
962.85	6366.97
963.02	6294.15
963.18	6306.60
963.35	6250.81
963.52	6248.52
963.69	6236.56
963.86	6232.21
964.02	6187.57
964.19	6210.92
964.36	6221.24
964.53	6183.06
964.69	6129.49
964.86	6195.84
965.03	6091.31
965.20	6125.88
965.37	6064.20
965.53	6079.44
965.70	6048.80
965.87	6064.36
966.04	6037.58
966.20	6027.50
966.37	6022.09
966.54	5956.48
966.71	6035.04
966.87	5988.51
967.04	5967.29
967.21	5972.45
967.38	5951.48
967.54	5947.55
967.71	5904.38
967.88	5905.93
968.05	5895.69
968.21	5862.19
968.38	5854.08
968.55	5865.71
968.72	5819.51
968.88	5798.54
969.05	5833.84
969.22	5784.69
969.39	5776.01
969.55	5797.06
969.72	5731.12
969.89	5737.43
970.05	5760.53
970.22	5746.76
970.39	5709.25
970.56	5743.49
970.72	5695.32
970.89	5719.57
971.06	5707.61
971.22	5675.09
971.39	5653.13
971.56	5684.51
971.73	5626.26
971.89	5664.27
972.06	5635.44
972.23	5624.87
972.39	5566.79
972.56	5602.10
972.73	5540.90
972.89	5568.26
973.06	5565.81
973.23	5573.01
973.39	5524.44
973.56	5532.55
973.73	5478.40
973.89	5540.25
974.06	5480.69
974.23	5474.79
974.39	5457.59
974.56	5451.69
974.73	5416.96
974.89	5421.79
975.06	5388.21
975.23	5422.04
975.39	5361.25
975.56	5380.10
975.73	5363.47
975.89	5365.10
976.06	5347.16
976.23	5325.29
976.39	5326.28
976.56	5296.37
976.73	5314.15
976.89	5291.79
977.06	5246.49
977.23	5275.90
977.39	5287.61
977.56	5271.23
977.72	5202.74
977.89	5255.09
978.06	5229.61
978.22	5208.56
978.39	5204.79
978.56	5221.42
978.72	5179.80
978.89	5185.95
979.05	5178.00
979.22	5161.62
979.39	5149.82
979.55	5139.83
979.72	5136.63
979.88	5150.89
980.05	5103.54
980.22	5125.66
980.38	5081.75
980.55	5114.92
980.71	5103.13
980.88	5071.02
981.05	5076.75
981.21	5060.29
981.38	5053.32
981.54	5045.79
981.71	5044.72
981.88	5045.95
982.04	5035.87
982.21	5009.17
982.37	5009.41
982.54	5016.38
982.70	4975.74
982.87	4994.59
983.04	4931.43
983.20	4990.65
983.37	4957.15
983.53	4951.74
983.70	4944.70
983.86	4954.12
984.03	4900.71
984.20	4932.90
984.36	4909.14
984.53	4944.04
984.69	4897.76
984.86	4874.90
985.02	4879.41
985.19	4872.85
985.35	4859.58
985.52	4853.36
985.68	4791.18
985.85	4816.33
986.02	4807.81
986.18	4827.64
986.35	4794.87
986.51	4803.47
986.68	4800.19
986.84	4775.21
987.01	4772.34
987.17	4765.38
987.34	4773.82
987.50	4763.66
987.67	4727.78
987.83	4769.80
988.00	4755.63
988.16	4706.48
988.33	4704.51
988.49	4729.33
988.66	4677.64
988.82	4679.53
988.99	4667.98
989.15	4663.80
989.32	4651.76
989.48	4657.74
989.65	4639.22
989.81	4645.69
989.98	4624.31
990.14	4595.07
990.31	4612.93
990.47	4600.88
990.64	4592.20
990.80	4614.89
990.97	4545.26
991.13	4584.83
991.30	4577.21
991.46	4573.28
991.63	4538.46
991.79	4552.55
991.95	4510.36
992.12	4552.31
992.28	4553.70
992.45	4538.05
992.61	4529.53
992.78	4514.46
992.94	4481.53
993.11	4534.12
993.27	4507.50
993.44	4503.57
993.60	4479.97
993.76	4480.87
993.93	4502.25
994.09	4493.57
994.26	4452.20
994.42	4452.61
994.59	4420.58
994.75	4448.35
994.91	4432.30
995.08	4390.52
995.24	4394.94
995.41	4399.94
995.57	4395.43
995.74	4390.27
995.90	4376.59
996.06	4365.12
996.23	4365.45
996.39	4358.49
996.56	4348.90
996.72	4353.33
996.88	4351.61
997.05	4350.13
997.21	4350.30
997.38	4357.01
997.54	4309.75
997.70	4315.32
997.87	4356.11
998.03	4306.96
998.20	4268.87
998.36	4304.91
998.52	4285.66
998.69	4303.27
998.85	4282.88
999.02	4275.59
999.18	4270.26
999.34	4270.83
999.51	4247.24
999.67	4273.54
999.83	4258.05
1000.00	4262.48
1000.16	4236.18
1000.33	4211.12
1000.49	4218.82
1000.65	4242.16
1000.82	4244.29
1000.98	4185.39
1001.14	4179.09
1001.31	4213.33
1001.47	4220.04
1001.63	4184.41
1001.80	4174.01
1001.96	4154.84
1002.12	4175.40
1002.29	4170.16
1002.45	4167.45
1002.61	4142.88
1002.78	4145.17
1002.94	4138.62
1003.10	4131.49
1003.27	4145.58
1003.43	4116.58
1003.59	4117.40
1003.76	4114.45
1003.92	4128.62
1004.08	4112.40
1004.25	4131.90
1004.41	4098.31
1004.57	4087.75
1004.74	4096.43
1004.90	4112.32
1005.06	4071.44
1005.23	4078.16
1005.39	4076.93
1005.55	4106.42
1005.71	4078.24
1005.88	4065.22
1006.04	4064.48
1006.20	4057.19
1006.37	4036.22
1006.53	4050.39
1006.69	4047.69
1006.85	4065.05
1007.02	4023.44
1007.18	4028.44
1007.34	4005.50
1007.51	4033.11
1007.67	3991.65
1007.83	3996.57
1007.99	3981.09
1008.16	3995.59
1008.32	3948.07
1008.48	3998.21
1008.64	3953.81
1008.81	3975.93
1008.97	3964.70
1009.13	3955.94
1009.29	3965.11
1009.46	3954.79
1009.62	3959.79
1009.78	3959.05
1009.95	3946.03
1010.11	3954.22
1010.27	3934.72
1010.43	3923.58
1010.59	3945.13
1010.76	3901.71
1010.92	3927.59
1011.08	3920.63
1011.24	3875.49
1011.41	3931.85
1011.57	3898.43
1011.73	3901.79
1011.89	3886.88
1012.06	3883.52
1012.22	3871.15
1012.38	3885.73
1012.54	3869.10
1012.70	3861.16
1012.87	3852.97
1013.03	3875.49
1013.19	3862.71
1013.35	3859.68
1013.51	3835.68
1013.68	3852.64
1013.84	3824.87
1014.00	3828.72
1014.16	3809.14
1014.32	3805.04
1014.49	3825.20
1014.65	3848.30
1014.81	3804.80
1014.97	3817.74
1015.13	3810.94
1015.30	3811.27
1015.46	3816.35
1015.62	3806.60
1015.78	3801.19
1015.94	3793.49
1016.10	3779.08
1016.27	3786.45
1016.43	3769.41
1016.59	3791.86
1016.75	3781.78
1016.91	3761.55
1017.07	3742.21
1017.24	3774.57
1017.40	3738.20
1017.56	3771.95
1017.72	3732.63
1017.88	3738.12
1018.04	3730.99
1018.21	3739.43
1018.37	3716.57
1018.53	3733.28
1018.69	3725.66
1018.85	3723.29
1019.01	3709.36
1019.17	3724.27
1019.34	3694.78
1019.50	3698.71
1019.66	3704.86
1019.82	3695.68
1019.98	3692.24
1020.14	3703.38
1020.30	3695.27
1020.46	3721.73
1020.63	3672.75
1020.79	3685.69
1020.95	3679.05
1021.11	3693.14
1021.27	3651.94
1021.43	3662.18
1021.59	3673.24
1021.75	3659.06
1021.91	3643.34
1022.07	3648.82
1022.24	3643.42
1022.40	3641.29
1022.56	3636.21
1022.72	3671.19
1022.88	3629.00
1023.04	3642.60
1023.20	3633.51
1023.36	3621.38
1023.52	3616.14
1023.68	3633.92
1023.84	3612.86
1024.01	3640.47
1024.17	3595.91
1024.33	3622.86
1024.49	3609.75
1024.65	3613.35
1024.81	3606.23
1024.97	3605.41
1025.13	3595.66
1025.29	3598.28
1025.45	3580.50
1025.61	3612.94
1025.77	3578.62
1025.93	3601.56
1026.09	3570.02
1026.25	3598.44
1026.41	3566.91
1026.57	3572.64
1026.73	3581.32
1026.90	3584.35
1027.06	3570.59
1027.22	3583.37
1027.38	3570.18
1027.54	3577.97
1027.70	3566.25
1027.86	3561.34
1028.02	3553.55
1028.18	3573.54
1028.34	3551.10
1028.50	3557.32
1028.66	3537.25
1028.82	3546.84
1028.98	3546.92
1029.14	3522.75
1029.30	3532.66
1029.46	3541.43
1029.62	3537.42
1029.78	3524.31
1029.94	3510.63
1030.10	3513.82
1030.26	3509.81
1030.42	3524.06
1030.58	3490.31
1030.74	3520.29
1030.90	3492.44
1031.06	3497.77
1031.22	3514.07
1031.38	3514.31
1031.54	3482.69
1031.70	3501.62
1031.86	3493.43
1032.02	3506.12
1032.18	3486.38
1032.34	3497.28
1032.50	3476.88
1032.66	3503.09
1032.82	3482.78
1032.98	3502.93
1033.14	3477.70
1033.30	3498.42
1033.45	3456.81
1033.61	3498.09
1033.77	3486.71
1033.93	3469.75
1034.09	3453.78
1034.25	3479.91
1034.41	3447.80
1034.57	3447.06
1034.73	3455.99
1034.89	3465.74
1035.05	3450.75
1035.21	3439.60
1035.37	3447.22
1035.53	3436.49
1035.69	3447.80
1035.85	3456.23
1036.01	3424.94
1036.16	3449.60
1036.32	3436.74
1036.48	3455.50
1036.64	3417.65
1036.80	3454.10
1036.96	3423.47
1037.12	3435.92
1037.28	3442.14
1037.44	3418.96
1037.60	3432.81
1037.76	3410.85
1037.91	3428.46
1038.07	3430.43
1038.23	3422.40
1038.39	3415.27
1038.55	3434.94
1038.71	3415.68
1038.87	3399.14
1039.03	3429.12
1039.19	3413.23
1039.35	3416.99
1039.50	3413.47
1039.66	3439.93
1039.82	3409.46
1039.98	3416.42
1040.14	3387.83
1040.30	3400.94
1040.46	3390.21
1040.62	3383.00
1040.77	3388.65
1040.93	3400.69
1041.09	3369.97
1041.25	3375.38
1041.41	3403.72
1041.57	3384.80
1041.73	3384.80
1041.88	3384.80

