SpectraSuite Data File
++++++++++++++++++++++++++++++++++++
Date: Tue Sep 20 12:01:49 EDT 2022
User: Laboratoire
Dark Spectrum Present: No
Reference Spectrum Present: No
Number of Sampled Component Spectra: 1
Spectrometers: FLMT00174
Integration Time (usec): 15000 (FLMT00174)
Spectra Averaged: 25 (FLMT00174)
Boxcar Smoothing: 0 (FLMT00174)
Correct for Electrical Dark: No (FLMT00174)
Strobe/Lamp Enabled: No (FLMT00174)
Correct for Detector Non-linearity: No (FLMT00174)
Correct for Stray Light: No (FLMT00174)
Number of Pixels in Processed Spectrum: 3648
>>>>>Begin Processed Spectral Data<<<<<
345.74	3147.89
345.96	3147.89
346.18	3147.89
346.39	3168.29
346.61	3214.25
346.83	3230.22
347.05	3215.80
347.27	3209.74
347.49	3223.91
347.71	3234.64
347.93	3228.58
348.15	3222.44
348.36	3210.72
348.58	3214.90
348.80	3199.42
349.02	3213.51
349.24	3225.14
349.46	3288.14
349.68	3300.59
349.90	3317.30
350.11	3285.92
350.33	3315.42
350.55	3292.48
350.77	3303.29
350.99	3273.39
351.21	3304.19
351.43	3272.82
351.65	3312.38
351.86	3287.89
352.08	3295.51
352.30	3285.02
352.52	3289.04
352.74	3286.42
352.96	3281.99
353.18	3308.21
353.39	3295.67
353.61	3282.07
353.83	3311.81
354.05	3312.88
354.27	3295.67
354.49	3300.92
354.70	3305.67
354.92	3297.80
355.14	3293.87
355.36	3279.94
355.58	3299.52
355.80	3282.40
356.02	3307.96
356.23	3287.73
356.45	3298.54
356.67	3287.48
356.89	3310.75
357.11	3287.24
357.33	3312.14
357.54	3292.56
357.76	3304.03
357.98	3286.42
358.20	3305.50
358.42	3288.79
358.63	3288.38
358.85	3298.21
359.07	3321.48
359.29	3302.23
359.51	3301.33
359.73	3308.21
359.94	3292.81
360.16	3272.33
360.38	3293.54
360.60	3280.35
360.82	3320.82
361.03	3302.31
361.25	3305.83
361.47	3308.53
361.69	3307.80
361.91	3303.46
362.12	3293.38
362.34	3292.81
362.56	3327.46
362.78	3296.08
363.00	3323.94
363.21	3298.38
363.43	3318.36
363.65	3277.65
363.87	3306.81
364.09	3304.85
364.30	3287.73
364.52	3303.29
364.74	3322.21
364.96	3300.51
365.17	3304.19
365.39	3291.66
365.61	3294.44
365.83	3293.87
366.05	3315.17
366.26	3299.36
366.48	3294.03
366.70	3300.75
366.92	3304.52
367.13	3283.71
367.35	3287.32
367.57	3319.92
367.79	3326.72
368.01	3313.20
368.22	3318.53
368.44	3290.10
368.66	3306.16
368.88	3309.44
369.09	3295.35
369.31	3299.28
369.53	3297.56
369.75	3294.94
369.96	3321.23
370.18	3302.88
370.40	3312.96
370.62	3310.17
370.83	3292.23
371.05	3327.70
371.27	3334.91
371.49	3295.59
371.70	3323.20
371.92	3310.66
372.14	3298.21
372.36	3302.96
372.57	3315.17
372.79	3305.42
373.01	3308.94
373.22	3308.45
373.44	3314.27
373.66	3293.05
373.88	3322.62
374.09	3305.91
374.31	3297.48
374.53	3294.85
374.75	3334.91
374.96	3303.70
375.18	3329.34
375.40	3312.88
375.61	3311.98
375.83	3316.40
376.05	3321.31
376.27	3343.02
376.48	3303.05
376.70	3297.72
376.92	3314.92
377.13	3319.92
377.35	3292.23
377.57	3309.35
377.79	3305.01
378.00	3318.20
378.22	3332.13
378.44	3295.76
378.65	3343.84
378.87	3305.09
379.09	3328.03
379.30	3331.88
379.52	3320.49
379.74	3339.83
379.96	3316.97
380.17	3302.88
380.39	3334.83
380.61	3320.17
380.82	3335.81
381.04	3302.06
381.26	3345.81
381.47	3329.51
381.69	3362.19
381.91	3337.53
382.12	3353.51
382.34	3346.22
382.56	3355.72
382.77	3346.30
382.99	3352.28
383.21	3339.75
383.42	3350.39
383.64	3351.79
383.86	3344.91
384.07	3353.26
384.29	3336.06
384.51	3352.28
384.72	3363.26
384.94	3340.89
385.16	3364.16
385.37	3340.40
385.59	3337.04
385.81	3366.04
386.02	3347.77
386.24	3357.93
386.46	3341.14
386.67	3352.03
386.89	3380.54
387.11	3381.52
387.32	3361.13
387.54	3349.49
387.76	3372.76
387.97	3381.85
388.19	3391.44
388.40	3366.86
388.62	3371.04
388.84	3382.18
389.05	3379.31
389.27	3359.82
389.49	3384.72
389.70	3361.04
389.92	3367.76
390.14	3359.08
390.35	3376.94
390.57	3359.90
390.78	3364.40
391.00	3355.64
391.22	3369.65
391.43	3364.73
391.65	3393.57
391.86	3370.38
392.08	3388.08
392.30	3372.84
392.51	3385.62
392.73	3399.71
392.95	3391.44
393.16	3363.26
393.38	3401.27
393.59	3372.84
393.81	3393.73
394.03	3379.23
394.24	3384.96
394.46	3373.99
394.67	3402.00
394.89	3382.67
395.11	3424.86
395.32	3429.12
395.54	3426.09
395.75	3419.94
395.97	3403.81
396.19	3405.36
396.40	3428.87
396.62	3415.11
396.83	3411.51
397.05	3418.22
397.26	3426.33
397.48	3427.97
397.70	3426.42
397.91	3450.50
398.13	3440.18
398.34	3443.78
398.56	3459.43
398.78	3470.49
398.99	3490.07
399.21	3438.54
399.42	3479.91
399.64	3452.55
399.85	3471.96
400.07	3478.35
400.29	3492.69
400.50	3484.66
400.72	3521.28
400.93	3493.26
401.15	3481.63
401.36	3501.70
401.58	3539.14
401.79	3534.30
402.01	3527.50
402.23	3522.26
402.44	3566.09
402.66	3551.92
402.87	3565.19
403.09	3559.37
403.30	3559.29
403.52	3534.79
403.73	3572.89
403.95	3565.51
404.16	3584.85
404.38	3573.62
404.60	3586.57
404.81	3592.38
405.03	3612.13
405.24	3603.52
405.46	3611.63
405.67	3601.89
405.89	3629.41
406.10	3622.53
406.32	3618.84
406.53	3624.17
406.75	3658.57
406.96	3630.48
407.18	3632.44
407.39	3616.88
407.61	3648.33
407.82	3637.19
408.04	3676.02
408.25	3632.69
408.47	3650.87
408.68	3669.80
408.90	3628.26
409.12	3651.86
409.33	3668.40
409.55	3631.79
409.76	3654.40
409.98	3636.95
410.19	3671.35
410.41	3662.83
410.62	3677.99
410.84	3641.37
411.05	3655.30
411.27	3665.04
411.48	3661.60
411.70	3668.16
411.91	3649.40
412.12	3659.72
412.34	3656.69
412.55	3663.57
412.77	3656.36
412.98	3663.98
413.20	3640.39
413.41	3660.29
413.63	3677.99
413.84	3659.97
414.06	3675.12
414.27	3652.18
414.49	3660.38
414.70	3673.07
414.92	3680.86
415.13	3673.97
415.35	3682.82
415.56	3681.26
415.78	3687.33
415.99	3694.21
416.21	3696.26
416.42	3706.09
416.63	3711.98
416.85	3707.56
417.06	3726.16
417.28	3696.91
417.49	3733.45
417.71	3723.62
417.92	3723.13
418.14	3736.81
418.35	3753.44
418.57	3749.83
418.78	3764.58
418.99	3755.57
419.21	3783.42
419.42	3769.49
419.64	3763.18
419.85	3757.29
420.07	3827.98
420.28	3791.94
420.50	3817.17
420.71	3808.81
420.92	3831.09
421.14	3842.89
421.35	3846.17
421.57	3847.89
421.78	3858.62
422.00	3875.25
422.21	3889.34
422.42	3882.05
422.64	3894.91
422.85	3931.69
423.07	3924.24
423.28	3929.64
423.50	3979.86
423.71	3973.71
423.92	3997.63
424.14	3984.04
424.35	4016.39
424.57	4020.49
424.78	4065.96
424.99	4079.31
425.21	4057.85
425.42	4072.18
425.64	4085.78
425.85	4090.20
426.06	4113.63
426.28	4125.84
426.49	4175.23
426.71	4179.25
426.92	4180.64
427.13	4216.19
427.35	4255.68
427.56	4272.96
427.78	4269.52
427.99	4282.38
428.20	4312.69
428.42	4319.41
428.63	4355.95
428.84	4306.55
429.06	4371.10
429.27	4398.95
429.49	4387.57
429.70	4437.21
429.91	4422.79
430.13	4424.43
430.34	4427.46
430.56	4461.38
430.77	4487.35
430.98	4444.99
431.20	4515.36
431.41	4513.97
431.62	4519.05
431.84	4508.64
432.05	4525.27
432.26	4526.42
432.48	4515.77
432.69	4585.32
432.91	4559.35
433.12	4573.44
433.33	4565.66
433.55	4618.01
433.76	4602.44
433.97	4566.89
434.19	4599.33
434.40	4618.66
434.61	4599.98
434.83	4605.14
435.04	4586.71
435.25	4606.54
435.47	4602.85
435.68	4575.98
435.89	4619.15
436.11	4598.67
436.32	4598.59
436.53	4609.57
436.75	4590.40
436.96	4619.07
437.17	4586.06
437.39	4582.13
437.60	4597.77
437.81	4604.00
438.03	4593.35
438.24	4596.30
438.45	4638.24
438.67	4582.13
438.88	4629.56
439.09	4641.68
439.31	4612.19
439.52	4599.66
439.73	4596.95
439.94	4577.62
440.16	4607.27
440.37	4587.20
440.58	4622.35
440.80	4613.25
441.01	4589.09
441.22	4664.37
441.44	4630.79
441.65	4615.47
441.86	4605.39
442.08	4648.15
442.29	4619.56
442.50	4640.62
442.71	4628.82
442.93	4631.69
443.14	4625.13
443.35	4669.78
443.57	4658.56
443.78	4656.26
443.99	4649.79
444.20	4666.99
444.42	4689.19
444.63	4709.51
444.84	4698.29
445.06	4728.10
445.27	4705.41
445.48	4721.88
445.69	4733.02
445.91	4716.47
446.12	4698.70
446.33	4752.60
446.54	4781.93
446.76	4754.89
446.97	4777.01
447.18	4779.14
447.39	4825.83
447.61	4830.75
447.82	4857.86
448.03	4832.22
448.25	4882.19
448.46	4894.81
448.67	4934.95
448.88	4904.89
449.10	4958.54
449.31	4950.27
449.52	4961.16
449.73	4977.30
449.95	5055.37
450.16	5012.44
450.37	5086.50
450.58	5144.74
450.79	5080.52
451.01	5084.29
451.22	5107.88
451.43	5146.63
451.64	5214.13
451.86	5204.63
452.07	5237.56
452.28	5269.67
452.49	5335.94
452.71	5316.36
452.92	5328.98
453.13	5355.77
453.34	5397.30
453.55	5462.10
453.77	5485.44
453.98	5500.93
454.19	5504.20
454.40	5558.43
454.62	5617.91
454.83	5584.89
455.04	5690.65
455.25	5646.09
455.46	5825.82
455.68	5782.23
455.89	5794.11
456.10	5837.78
456.31	5855.63
456.52	5947.06
456.74	5958.44
456.95	6066.74
457.16	6030.94
457.37	6096.39
457.58	6146.53
457.80	6109.34
458.01	6129.32
458.22	6350.59
458.43	6272.93
458.64	6313.72
458.86	6316.75
459.07	6407.28
459.28	6396.05
459.49	6474.78
459.70	6615.76
459.91	6626.08
460.13	6612.89
460.34	6648.69
460.55	6626.98
460.76	6780.74
460.97	6758.62
461.19	6795.24
461.40	6957.77
461.61	6896.66
461.82	6929.67
462.03	6984.06
462.24	6966.37
462.46	6997.09
462.67	7012.57
462.88	7087.20
463.09	7126.19
463.30	7189.60
463.51	7072.95
463.72	7259.48
463.94	7254.31
464.15	7282.33
464.36	7246.29
464.57	7374.49
464.78	7355.98
464.99	7396.44
465.20	7368.02
465.42	7443.87
465.63	7442.48
465.84	7424.30
466.05	7563.48
466.26	7543.00
466.47	7572.65
466.68	7535.79
466.90	7642.77
467.11	7566.59
467.32	7625.00
467.53	7704.21
467.74	7564.87
467.95	7639.99
468.16	7684.14
468.37	7739.77
468.59	7661.86
468.80	7798.66
469.01	7674.89
469.22	7743.04
469.43	7880.99
469.64	7734.52
469.85	7830.53
470.06	7772.04
470.28	7884.02
470.49	7718.47
470.70	7807.51
470.91	7904.91
471.12	7787.44
471.33	7911.39
471.54	7850.93
471.75	7883.37
471.96	7991.42
472.17	7941.37
472.39	8050.89
472.60	7867.39
472.81	8078.09
473.02	7976.84
473.23	8051.71
473.44	8072.93
473.65	8032.95
473.86	8046.31
474.07	8035.98
474.28	8075.71
474.49	8207.11
474.71	8116.35
474.92	8194.09
475.13	8112.74
475.34	8155.09
475.55	8133.47
475.76	8190.56
475.97	8323.60
476.18	8263.55
476.39	8311.56
476.60	8368.74
476.81	8339.66
477.02	8394.46
477.23	8362.76
477.44	8378.24
477.65	8466.63
477.87	8530.53
478.08	8520.61
478.29	8537.49
478.50	8663.24
478.71	8575.50
478.92	8658.98
479.13	8635.96
479.34	8665.61
479.55	8728.20
479.76	8730.41
479.97	8766.37
480.18	8934.22
480.39	8801.35
480.60	8958.72
480.81	9000.58
481.02	8999.35
481.23	9018.19
481.44	9128.29
481.65	9204.39
481.86	9305.56
482.07	9162.04
482.28	9424.34
482.49	9354.79
482.71	9354.47
482.92	9430.57
483.13	9557.79
483.34	9530.92
483.55	9594.73
483.76	9622.75
483.97	9757.67
484.18	9770.53
484.39	9845.73
484.60	9851.06
484.81	10009.41
485.02	9946.25
485.23	10079.94
485.44	10144.00
485.65	10240.91
485.86	10196.10
486.07	10433.91
486.28	10456.19
486.49	10500.67
486.70	10609.95
486.91	10696.05
487.12	10684.74
487.33	10720.46
487.54	10910.59
487.75	10991.86
487.96	11030.03
488.17	11003.33
488.38	11188.71
488.59	11274.97
488.80	11374.09
489.01	11426.35
489.22	11617.72
489.43	11618.04
489.64	11548.99
489.85	11880.35
490.06	11778.20
490.26	11953.83
490.47	11953.58
490.68	12171.41
490.89	12291.74
491.10	12260.94
491.31	12464.02
491.52	12674.96
491.73	12671.44
491.94	12719.44
492.15	12964.54
492.36	13005.34
492.57	13094.63
492.78	13136.49
492.99	13310.08
493.20	13446.14
493.41	13478.58
493.62	13584.18
493.83	13645.21
494.04	13817.24
494.25	14070.61
494.46	14117.88
494.67	14057.18
494.88	14342.01
495.08	14436.87
495.29	14576.95
495.50	14744.31
495.71	14766.67
495.92	14991.95
496.13	15062.56
496.34	15079.69
496.55	15289.32
496.76	15529.91
496.97	15424.48
497.18	15676.14
497.39	15705.38
497.60	16012.66
497.81	15911.49
498.02	16118.01
498.22	16052.96
498.43	16350.98
498.64	16513.67
498.85	16586.25
499.06	16648.35
499.27	16980.86
499.48	16708.89
499.69	17016.65
499.90	17052.29
500.11	17307.38
500.32	17510.79
500.52	17402.66
500.73	17749.25
500.94	17848.21
501.15	17923.82
501.36	17988.29
501.57	18002.87
501.78	18189.24
501.99	18375.36
502.20	18443.35
502.41	18515.36
502.61	18532.56
502.82	18757.76
503.03	18610.71
503.24	18951.90
503.45	18814.93
503.66	19016.29
503.87	19060.77
504.08	19268.52
504.28	19222.89
504.49	19340.36
504.70	19361.01
504.91	19490.11
505.12	19421.71
505.33	19700.80
505.54	19664.84
505.75	19653.78
505.95	19819.59
506.16	19751.92
506.37	19723.41
506.58	19957.29
506.79	19752.99
507.00	19988.58
507.21	19853.09
507.41	19844.33
507.62	19920.84
507.83	20184.21
508.04	19930.34
508.25	20155.21
508.46	19964.01
508.67	20239.75
508.87	20069.77
509.08	20289.72
509.29	20121.13
509.50	20129.40
509.71	20159.63
509.92	20240.98
510.12	20032.17
510.33	20116.21
510.54	20044.04
510.75	20113.10
510.96	20230.16
511.17	20265.14
511.37	20119.65
511.58	20130.14
511.79	20012.42
512.00	19987.11
512.21	20159.63
512.42	20031.59
512.62	20026.02
512.83	20151.60
513.04	19988.01
513.25	20136.20
513.46	19691.06
513.66	20150.21
513.87	19951.15
514.08	20040.28
514.29	19876.60
514.50	19766.91
514.71	19872.59
514.91	19692.12
515.12	19674.26
515.33	19811.07
515.54	19621.42
515.75	19754.13
515.95	19505.84
516.16	19449.07
516.37	19530.82
516.58	19554.50
516.78	19388.53
516.99	19470.94
517.20	19399.92
517.41	19328.07
517.62	19363.63
517.82	19270.16
518.03	19345.93
518.24	19470.45
518.45	19120.74
518.66	19248.53
518.86	19075.44
519.07	19246.56
519.28	18923.97
519.49	19139.50
519.69	19115.66
519.90	19059.79
520.11	19020.14
520.32	18963.94
520.52	19082.97
520.73	18877.85
520.94	19062.17
521.15	19009.74
521.36	18780.61
521.56	19064.70
521.77	18768.98
521.98	18947.15
522.19	18696.32
522.39	18835.91
522.60	18718.27
522.81	18714.01
523.02	18606.86
523.22	18784.38
523.43	18813.79
523.64	18735.47
523.84	18691.57
524.05	18775.29
524.26	18835.41
524.47	18679.11
524.67	18697.38
524.88	18786.92
525.09	18851.22
525.30	18668.87
525.50	18714.26
525.71	18720.07
525.92	18718.68
526.13	18874.16
526.33	18747.52
526.54	18605.30
526.75	18718.19
526.95	18857.78
527.16	18545.09
527.37	18795.93
527.58	18871.79
527.78	18805.84
527.99	18956.16
528.20	19001.87
528.40	18846.31
528.61	18855.07
528.82	18974.84
529.03	18965.34
529.23	18928.72
529.44	19086.09
529.65	19094.69
529.85	19110.83
530.06	19043.41
530.27	19092.07
530.47	18937.98
530.68	19319.39
530.89	19025.06
531.09	19292.19
531.30	19251.07
531.51	19196.35
531.72	19478.56
531.92	19388.78
532.13	19547.37
532.34	19540.49
532.54	19508.79
532.75	19582.68
532.96	19580.06
533.16	19740.62
533.37	19866.44
533.58	19788.87
533.78	19943.04
533.99	19998.33
534.20	19804.92
534.40	20010.05
534.61	20089.02
534.82	20190.68
535.02	20256.54
535.23	20276.61
535.44	20478.54
535.64	20397.28
535.85	20529.66
536.06	20588.72
536.26	20617.39
536.47	20667.85
536.68	20930.32
536.88	20719.55
537.09	20999.46
537.29	20907.55
537.50	21342.54
537.71	21111.44
537.91	21360.48
538.12	21482.45
538.33	21367.44
538.53	21580.35
538.74	21667.35
538.95	21721.08
539.15	21650.06
539.36	21884.02
539.56	22102.25
539.77	21973.23
539.98	22051.38
540.18	22237.66
540.39	22253.31
540.60	22452.21
540.80	22549.04
541.01	22622.60
541.21	22752.93
541.42	22948.96
541.63	22966.74
541.83	23151.39
542.04	23223.72
542.25	23283.68
542.45	23437.86
542.66	23496.43
542.86	23750.95
543.07	23381.74
543.28	23939.53
543.48	23934.12
543.69	24128.43
543.89	24138.59
544.10	24515.41
544.31	24486.42
544.51	24529.01
544.72	24681.22
544.92	24759.70
545.13	25094.91
545.33	25158.97
545.54	25195.42
545.75	25450.44
545.95	25361.23
546.16	25527.77
546.36	25924.50
546.57	25520.15
546.78	25168.14
546.98	25634.75
547.19	25331.33
547.39	26014.61
547.60	26313.04
547.80	26665.62
548.01	26798.57
548.22	26658.74
548.42	26926.69
548.63	27150.33
548.83	27130.34
549.04	27368.89
549.24	27291.56
549.45	27603.51
549.65	27900.22
549.86	27629.72
550.07	27881.13
550.27	28211.83
550.48	28318.74
550.68	28336.92
550.89	28409.01
551.09	28639.94
551.30	28646.82
551.50	28939.52
551.71	28935.26
551.91	28921.17
552.12	29223.86
552.33	29475.51
552.53	29318.56
552.74	29702.76
552.94	29866.84
553.15	29698.82
553.35	29949.90
553.56	29795.00
553.76	30159.86
553.97	30035.67
554.17	30258.82
554.38	30697.41
554.58	30471.89
554.79	30778.19
554.99	30579.04
555.20	30645.64
555.40	31087.76
555.61	30855.93
555.81	30746.32
556.02	31343.92
556.22	31345.14
556.43	31189.01
556.63	31308.45
556.84	31201.30
557.04	31719.35
557.25	31367.84
557.45	31607.28
557.66	31526.59
557.86	31537.33
558.07	31969.69
558.27	31724.84
558.48	31819.62
558.68	31880.48
558.89	32004.34
559.09	32105.68
559.30	31966.99
559.50	32183.67
559.71	31913.01
559.91	32336.53
560.12	32071.19
560.32	32137.46
560.53	32239.37
560.73	32126.40
560.94	32375.27
561.14	32132.38
561.35	32602.35
561.55	32336.28
561.76	32479.56
561.96	32101.66
562.17	32367.00
562.37	32524.94
562.57	32354.63
562.78	32222.90
562.98	32377.40
563.19	32377.98
563.39	32425.41
563.60	32417.05
563.80	32093.64
564.01	32448.92
564.21	32184.07
564.42	32093.72
564.62	32257.88
564.82	32336.94
565.03	32047.76
565.23	32170.97
565.44	32187.60
565.64	32013.85
565.85	32098.06
566.05	31964.53
566.25	32139.35
566.46	31752.53
566.66	31905.80
566.87	31876.06
567.07	31703.38
567.28	31756.21
567.48	31821.58
567.68	31294.36
567.89	31847.88
568.09	31450.74
568.30	31384.96
568.50	31581.23
568.71	31346.05
568.91	31366.77
569.11	31182.86
569.32	31158.94
569.52	31200.80
569.73	30742.55
569.93	31083.82
570.13	30832.58
570.34	30738.37
570.54	30913.43
570.75	30760.00
570.95	30721.82
571.15	30551.35
571.36	30783.43
571.56	30398.41
571.77	30407.42
571.97	30007.41
572.17	30441.74
572.38	30218.76
572.58	30257.59
572.79	30012.24
572.99	30040.34
573.19	29867.90
573.40	29758.46
573.60	29793.28
573.81	29638.86
574.01	29628.70
574.21	29464.78
574.42	29371.23
574.62	29252.45
574.82	29369.59
575.03	29069.36
575.23	29286.94
575.43	29021.36
575.64	28926.99
575.84	29089.84
576.05	28742.01
576.25	28850.23
576.45	28690.98
576.66	28938.54
576.86	28565.97
577.06	28753.65
577.27	28625.77
577.47	28537.87
577.67	28352.49
577.88	28014.74
578.08	28336.19
578.28	28259.68
578.49	28077.82
578.69	28084.86
578.89	27901.61
579.10	27888.01
579.30	28201.02
579.50	27857.04
579.71	27559.68
579.91	27908.65
580.11	27609.40
580.32	27539.12
580.52	27372.49
580.72	27701.23
580.93	27361.27
581.13	27352.92
581.33	27503.40
581.54	27221.68
581.74	27222.09
581.94	27206.94
582.15	27229.22
582.35	27039.33
582.55	27090.69
582.76	26947.91
582.96	27156.88
583.16	27020.90
583.37	27041.63
583.57	26810.12
583.77	26971.26
583.97	26447.47
584.18	26966.51
584.38	26863.04
584.58	26572.23
584.79	26782.76
584.99	26710.51
585.19	26644.48
585.40	26557.32
585.60	26731.97
585.80	26499.98
586.00	26574.44
586.21	26477.37
586.41	26471.47
586.61	26580.34
586.82	26459.18
587.02	26445.09
587.22	26621.46
587.42	26325.66
587.63	26589.19
587.83	26239.39
588.03	26266.51
588.23	26166.98
588.44	26304.68
588.64	26178.53
588.84	26333.52
589.05	26421.66
589.25	26402.66
589.45	26435.67
589.65	26220.88
589.86	26423.06
590.06	26353.75
590.26	26212.36
590.46	26390.70
590.67	26029.19
590.87	26394.22
591.07	26469.91
591.27	26199.09
591.48	26377.67
591.68	26019.52
591.88	26556.58
592.08	26145.43
592.29	26406.02
592.49	26289.86
592.69	26458.12
592.89	26303.86
593.10	26339.83
593.30	26361.37
593.50	26602.79
593.70	26224.81
593.90	26487.04
594.11	26559.94
594.31	26545.36
594.51	26718.46
594.71	26678.15
594.92	26649.56
595.12	26542.33
595.32	26619.50
595.52	26741.15
595.72	26370.14
595.93	26760.73
596.13	26701.58
596.33	26577.23
596.53	26895.97
596.73	26876.72
596.94	26838.88
597.14	26988.71
597.34	26881.39
597.54	27172.78
597.74	26967.73
597.95	27066.20
598.15	27094.79
598.35	27198.01
598.55	27323.59
598.75	27180.89
598.96	27541.98
599.16	27334.73
599.36	27431.80
599.56	27415.26
599.76	27432.46
599.97	27587.45
600.17	27613.17
600.37	27708.36
600.57	27393.06
600.77	27857.29
600.97	27734.82
601.18	28090.43
601.38	27844.18
601.58	28061.60
601.78	28044.97
601.98	28001.30
602.18	28216.91
602.39	28377.64
602.59	28327.50
602.79	28390.34
602.99	28398.77
603.19	28444.57
603.39	28474.88
603.60	28573.26
603.80	28687.37
604.00	28680.49
604.20	28776.99
604.40	28954.51
604.60	28942.22
604.80	28965.81
605.01	29198.71
605.21	29148.00
605.41	29201.00
605.61	29116.79
605.81	29316.26
606.01	29537.69
606.21	29392.04
606.42	29679.33
606.62	29586.76
606.82	29929.75
607.02	29817.77
607.22	29980.21
607.42	30257.35
607.62	30033.79
607.82	30181.82
608.03	30275.70
608.23	30247.02
608.43	30195.09
608.63	30607.38
608.83	30602.47
609.03	30660.30
609.23	30801.86
609.43	30967.01
609.63	30864.20
609.84	30903.60
610.04	31327.86
610.24	31307.54
610.44	31371.77
610.64	31266.09
610.84	31464.50
611.04	31819.95
611.24	31733.69
611.44	31469.58
611.64	31944.79
611.85	32000.00
612.05	32061.44
612.25	32168.10
612.45	32018.60
612.65	32305.72
612.85	32536.00
613.05	32423.03
613.25	32744.15
613.45	32818.70
613.65	32796.34
613.85	32742.43
614.05	33071.50
614.25	33247.54
614.46	33183.40
614.66	33032.92
614.86	33090.51
615.06	33335.52
615.26	33602.25
615.46	33265.48
615.66	33847.19
615.86	33975.31
616.06	33801.97
616.26	33920.01
616.46	34392.03
616.66	34195.51
616.86	34515.40
617.06	34278.90
617.26	34713.48
617.46	34537.52
617.66	34557.75
617.86	34546.86
618.07	34845.21
618.27	34811.78
618.47	34810.55
618.67	34985.86
618.87	35133.89
619.07	35141.10
619.27	35163.71
619.47	35256.11
619.67	35595.34
619.87	35245.05
620.07	35610.08
620.27	35704.78
620.47	35482.53
620.67	35716.82
620.87	35822.66
621.07	36023.44
621.27	36059.65
621.47	35858.05
621.67	36311.39
621.87	36072.27
622.07	36515.12
622.27	36560.67
622.47	36333.75
622.67	36691.98
622.87	36377.09
623.07	36790.78
623.27	37094.61
623.47	36484.56
623.67	36886.13
623.87	37120.83
624.07	37003.27
624.27	36732.78
624.47	36961.82
624.67	36920.13
624.87	37123.53
625.07	36965.43
625.27	37349.79
625.47	37124.51
625.67	37149.91
625.87	37507.16
626.07	37406.48
626.27	37673.78
626.47	37591.61
626.67	37552.29
626.87	37386.08
627.07	37765.28
627.27	37696.31
627.47	37875.38
627.67	37693.36
627.87	37622.66
628.07	37960.17
628.27	37819.92
628.47	37738.99
628.67	38026.85
628.86	38255.32
629.06	38004.16
629.26	37885.29
629.46	38101.39
629.66	38084.93
629.86	37659.85
630.06	38090.91
630.26	38064.61
630.46	38325.69
630.66	38089.19
630.86	38065.10
631.06	38267.69
631.26	37961.48
631.46	38374.51
631.66	38238.36
631.86	38048.06
632.06	38423.01
632.26	38120.97
632.45	38144.56
632.65	38133.75
632.85	38241.31
633.05	38070.59
633.25	38138.50
633.45	37848.18
633.65	37844.82
633.85	38201.25
634.05	37523.21
634.25	37729.15
634.45	37841.71
634.65	38063.55
634.84	37763.23
635.04	37813.29
635.24	37507.97
635.44	37734.89
635.64	37402.22
635.84	37654.85
636.04	37535.01
636.24	37571.95
636.44	37647.73
636.64	37208.07
636.84	37849.08
637.03	37203.32
637.23	37405.17
637.43	37366.66
637.63	37057.09
637.83	37316.53
638.03	37190.46
638.23	36767.26
638.43	37008.19
638.62	37259.60
638.82	36398.88
639.02	37069.05
639.22	36713.85
639.42	36860.41
639.62	36467.61
639.82	36635.87
640.02	36475.96
640.21	36540.43
640.41	36150.91
640.61	36424.03
640.81	36311.88
641.01	36140.01
641.21	35918.67
641.41	36357.10
641.61	35924.16
641.80	35918.67
642.00	36094.79
642.20	35951.19
642.40	35471.06
642.60	35756.39
642.80	35777.36
642.99	35433.63
643.19	35605.25
643.39	35248.90
643.59	35420.85
643.79	35207.86
643.99	35289.29
644.19	35290.11
644.38	34819.65
644.58	34934.99
644.78	34798.27
644.98	34797.45
645.18	34755.50
645.38	34926.30
645.57	34558.98
645.77	34689.97
645.97	34421.69
646.17	34606.41
646.37	34389.82
646.56	34170.28
646.76	34158.81
646.96	34118.91
647.16	33836.21
647.36	33990.79
647.55	33774.36
647.75	33776.66
647.95	33504.93
648.15	33604.46
648.35	33609.87
648.55	33464.63
648.74	33357.07
648.94	33307.43
649.14	33497.56
649.34	33041.19
649.54	33025.63
649.73	32970.09
649.93	32679.11
650.13	32596.62
650.33	32375.93
650.52	32711.55
650.72	32678.86
650.92	32438.10
651.12	32269.93
651.32	32469.23
651.51	32382.65
651.71	32269.52
651.91	32026.63
652.11	31865.33
652.30	31703.62
652.50	31959.29
652.70	31869.18
652.90	31445.17
653.10	31666.51
653.29	31392.58
653.49	31556.09
653.69	31218.42
653.89	31135.51
654.08	31167.71
654.28	31389.63
654.48	31192.12
654.68	31180.49
654.87	31084.07
655.07	30825.53
655.27	30973.07
655.47	30688.65
655.66	30539.72
655.86	30469.43
656.06	30750.91
656.26	30230.56
656.45	30346.72
656.65	30217.86
656.85	30134.63
657.04	29917.14
657.24	30008.39
657.44	29869.05
657.64	30123.98
657.83	29475.35
658.03	29868.23
658.23	29748.14
658.43	29663.84
658.62	29603.63
658.82	29465.76
659.02	29304.63
659.21	29409.81
659.41	29235.25
659.61	29380.00
659.81	29267.85
660.00	29068.95
660.20	29181.75
660.40	28939.11
660.59	29040.03
660.79	28730.38
660.99	28922.81
661.19	28886.44
661.38	28817.21
661.58	28387.39
661.78	28575.23
661.97	28418.52
662.17	28787.81
662.37	28303.42
662.56	28342.09
662.76	28246.32
662.96	28322.10
663.15	28361.17
663.35	28210.93
663.55	28004.91
663.74	27859.91
663.94	27981.15
664.14	27709.10
664.33	27801.42
664.53	27667.89
664.73	28035.95
664.93	27668.80
665.12	27861.06
665.32	27706.31
665.52	27701.40
665.71	27611.37
665.91	27670.19
666.10	27529.37
666.30	27724.17
666.50	27440.32
666.69	27364.30
666.89	27474.65
667.09	27602.69
667.28	27297.79
667.48	27229.22
667.68	27265.84
667.87	27309.42
668.07	27101.26
668.27	27301.96
668.46	27209.72
668.66	27019.59
668.86	27208.82
669.05	26905.23
669.25	27092.58
669.44	26948.32
669.64	26862.14
669.84	26918.34
670.03	27088.73
670.23	26880.90
670.43	26845.92
670.62	26845.35
670.82	26819.71
671.01	26892.70
671.21	26632.77
671.41	26658.98
671.60	26784.65
671.80	26877.21
672.00	26678.32
672.19	26791.04
672.39	26717.14
672.58	26647.92
672.78	26602.21
672.98	26760.64
673.17	26562.24
673.37	26273.23
673.56	26462.13
673.76	26461.89
673.96	26629.82
674.15	26491.13
674.35	26452.71
674.54	26411.83
674.74	26386.03
674.94	26358.26
675.13	26419.70
675.33	26209.99
675.52	26481.46
675.72	26407.66
675.91	26381.69
676.11	26569.86
676.31	26288.87
676.50	26370.46
676.70	26381.28
676.89	26502.60
677.09	26526.03
677.28	26536.84
677.48	26260.69
677.68	26485.64
677.87	26224.81
678.07	26328.93
678.26	26317.30
678.46	26342.78
678.65	26219.90
678.85	26347.61
679.04	26050.90
679.24	26285.84
679.44	26115.53
679.63	26299.77
679.83	26168.13
680.02	26345.97
680.22	26225.80
680.41	26378.74
680.61	26270.03
680.80	26273.88
681.00	26272.00
681.19	26234.56
681.39	26142.16
681.59	26128.89
681.78	26151.00
681.98	26358.75
682.17	26068.92
682.37	26231.61
682.56	26044.18
682.76	26313.61
682.95	26178.53
683.15	26245.78
683.34	26287.32
683.54	26281.91
683.73	26351.21
683.93	26154.20
684.12	26248.98
684.32	26396.60
684.51	26219.16
684.71	26358.26
684.90	26365.96
685.10	26295.67
685.29	26317.95
685.49	26403.31
685.68	26454.51
685.88	26373.00
686.07	26130.77
686.27	26482.53
686.46	26339.66
686.66	26294.94
686.85	26497.60
687.05	26450.50
687.24	26430.43
687.44	26776.04
687.63	26655.13
687.83	26463.20
688.02	26594.68
688.22	26723.45
688.41	26564.12
688.61	26665.21
688.80	26674.30
689.00	26441.08
689.19	26311.65
689.39	26716.16
689.58	26610.98
689.77	26667.01
689.97	26731.32
690.16	26638.50
690.36	26509.15
690.55	26516.77
690.75	26883.69
690.94	26659.97
691.14	26806.93
691.33	26545.53
691.53	26797.92
691.72	26676.43
691.91	26738.12
692.11	26745.98
692.30	26939.31
692.50	27014.84
692.69	26827.24
692.89	26915.47
693.08	26881.97
693.28	26933.74
693.47	27134.93
693.66	27119.45
693.86	27043.51
694.05	26987.97
694.25	27063.25
694.44	27118.87
694.64	27056.37
694.83	27104.21
695.02	27147.96
695.22	27314.41
695.41	27164.42
695.61	27118.87
695.80	27267.80
695.99	27251.83
696.19	27320.31
696.38	27399.53
696.58	27175.15
696.77	27636.27
696.96	27469.98
697.16	27446.47
697.35	27473.58
697.55	27548.62
697.74	27430.41
697.93	27769.39
698.13	27555.99
698.32	27754.56
698.52	27693.45
698.71	27544.36
698.90	27917.83
699.10	27714.42
699.29	27723.35
699.49	27957.07
699.68	27800.36
699.87	27794.62
700.07	28081.99
700.26	27941.09
700.45	27972.71
700.65	27892.84
700.84	28155.47
701.04	27930.28
701.23	28134.01
701.42	28112.88
701.62	28132.05
701.81	28257.55
702.00	28280.32
702.20	28050.21
702.39	28168.91
702.58	28406.56
702.78	28200.12
702.97	28320.95
703.17	28402.13
703.36	28368.46
703.55	28368.05
703.75	28377.56
703.94	28587.60
704.13	28409.09
704.33	28464.55
704.52	28749.39
704.71	28659.27
704.91	28746.85
705.10	28621.35
705.29	28685.16
705.49	28835.40
705.68	28865.38
705.87	28835.65
706.07	28672.38
706.26	28954.67
706.45	28675.74
706.65	28643.38
706.84	28971.79
707.03	29183.23
707.23	28843.76
707.42	28866.04
707.61	29129.41
707.80	28928.21
708.00	28998.58
708.19	28969.66
708.38	29257.53
708.58	28835.56
708.77	29283.91
708.96	28990.39
709.16	29053.30
709.35	29567.84
709.54	29297.91
709.74	29314.54
709.93	29018.49
710.12	29539.82
710.31	29657.86
710.51	29363.28
710.70	29452.25
710.89	29507.46
711.09	29242.29
711.28	29238.69
711.47	29509.59
711.66	29431.69
711.86	29512.29
712.05	29525.73
712.24	29762.39
712.43	29501.07
712.63	29312.00
712.82	29765.34
713.01	29679.16
713.21	29428.41
713.40	29554.81
713.59	29804.33
713.78	29465.03
713.98	29742.98
714.17	29584.14
714.36	29689.40
714.55	29349.44
714.75	29507.05
714.94	29558.01
715.13	29818.10
715.32	29419.73
715.52	29751.01
715.71	29581.19
715.90	29661.80
716.09	29579.88
716.29	29923.69
716.48	29811.30
716.67	29405.47
716.86	29643.20
717.06	29616.90
717.25	29728.48
717.44	29722.50
717.63	29762.56
717.82	29488.13
718.02	29685.31
718.21	29821.95
718.40	29939.50
718.59	29852.26
718.79	29699.97
718.98	29754.45
719.17	29944.74
719.36	30001.35
719.55	29868.56
719.75	29822.19
719.94	29797.29
720.13	30054.92
720.32	29963.83
720.51	29733.97
720.71	29784.92
720.90	29536.21
721.09	29684.57
721.28	29580.61
721.47	29884.86
721.67	29635.75
721.86	29736.01
722.05	29772.88
722.24	29477.15
722.43	29792.46
722.63	29599.37
722.82	29685.72
723.01	29790.16
723.20	29535.40
723.39	29514.59
723.58	29720.20
723.78	29321.10
723.97	29673.59
724.16	29398.76
724.35	29505.90
724.54	29237.38
724.73	29554.73
724.93	29241.88
725.12	29439.47
725.31	28958.03
725.50	29270.55
725.69	29394.91
725.88	29196.83
726.08	28976.22
726.27	29332.24
726.46	28859.98
726.65	29477.56
726.84	29047.57
727.03	29149.80
727.23	29473.22
727.42	29044.87
727.61	29113.19
727.80	28997.27
727.99	29080.34
728.18	29123.18
728.37	28969.58
728.56	28810.50
728.76	28783.05
728.95	28906.34
729.14	28808.12
729.33	28834.50
729.52	28825.24
729.71	28762.82
729.90	28733.49
730.09	28562.36
730.29	28752.74
730.48	28270.24
730.67	28594.72
730.86	28271.31
731.05	28563.51
731.24	28251.65
731.43	28386.73
731.62	28130.82
731.81	28190.62
732.01	28521.16
732.20	28214.05
732.39	28379.60
732.58	28272.78
732.77	27909.55
732.96	28256.73
733.15	28185.95
733.34	27931.92
733.53	27955.26
733.72	27989.51
733.92	27795.77
734.11	27722.53
734.30	27726.47
734.49	27862.45
734.68	27669.78
734.87	27555.26
735.06	27540.18
735.25	27603.67
735.44	27366.11
735.63	27489.39
735.82	27472.60
736.01	27366.84
736.20	27286.89
736.40	27618.09
736.59	27412.88
736.78	27544.20
736.97	27200.06
737.16	27232.41
737.35	27141.81
737.54	27161.55
737.73	26966.18
737.92	27083.32
738.11	27081.19
738.30	26858.62
738.49	26795.21
738.68	26713.87
738.87	26851.82
739.06	26554.45
739.25	26611.96
739.44	26531.27
739.63	26393.81
739.82	26265.61
740.01	26433.38
740.20	26320.08
740.39	26329.67
740.59	26307.39
740.78	26294.28
740.97	26110.70
741.16	25920.32
741.35	25984.22
741.54	25845.37
741.73	25855.36
741.92	25740.35
742.11	25696.77
742.30	25715.36
742.49	25439.13
742.68	25718.31
742.87	25554.55
743.06	25360.65
743.25	25468.62
743.44	25335.50
743.63	25502.54
743.82	25274.80
744.01	25223.27
744.20	25023.31
744.39	25199.52
744.58	25083.19
744.77	24894.62
744.96	24704.65
745.15	24942.54
745.34	24754.13
745.53	24755.93
745.72	24579.97
745.91	24582.10
746.10	24295.38
746.29	24599.55
746.48	24499.85
746.67	24461.68
746.86	24413.67
747.04	24326.84
747.23	24212.23
747.42	24287.27
747.61	23982.86
747.80	24329.38
747.99	23782.49
748.18	23941.57
748.37	23798.87
748.56	23530.10
748.75	23683.37
748.94	23669.19
749.13	23680.01
749.32	23517.32
749.51	23534.85
749.70	23516.58
749.89	23374.53
750.08	23410.25
750.27	23129.76
750.46	23191.44
750.65	23242.81
750.84	23002.78
751.02	23073.64
751.21	22893.34
751.40	22908.33
751.59	22940.28
751.78	22840.83
751.97	22857.95
752.16	22564.68
752.35	22654.30
752.54	22435.91
752.73	22574.92
752.92	22306.48
753.11	22401.42
753.30	22353.82
753.49	22410.76
753.67	22260.93
753.86	22092.91
754.05	22200.39
754.24	21952.67
754.43	21964.87
754.62	21983.31
754.81	21836.59
755.00	21838.72
755.19	21820.37
755.38	21566.42
755.56	21764.09
755.75	21864.61
755.94	21568.14
756.13	21599.60
756.32	21658.09
756.51	21468.36
756.70	21518.74
756.89	21417.41
757.08	21234.16
757.26	21275.04
757.45	21205.90
757.64	20956.37
757.83	21155.44
758.02	20957.19
758.21	20891.74
758.40	20928.52
758.59	20873.63
758.77	20724.62
758.96	20747.64
759.15	20797.37
759.34	20532.36
759.53	20642.05
759.72	20592.33
759.91	20443.48
760.09	20557.59
760.28	20588.97
760.47	20395.88
760.66	20572.42
760.85	20226.15
761.04	20431.68
761.23	20295.12
761.41	20235.00
761.60	20248.35
761.79	20117.52
761.98	19925.59
762.17	20086.97
762.36	19859.81
762.54	19960.65
762.73	19882.66
762.92	19642.31
763.11	19943.61
763.30	19921.08
763.49	19822.94
763.67	19791.49
763.86	19808.69
764.05	19806.40
764.24	19689.91
764.43	19861.77
764.61	19523.29
764.80	19533.94
764.99	19712.85
765.18	19430.23
765.37	19552.12
765.55	19496.50
765.74	19415.40
765.93	19269.75
766.12	19396.64
766.31	19273.84
766.49	19327.91
766.68	19317.26
766.87	19210.60
767.06	19095.01
767.25	19130.32
767.43	19125.82
767.62	19001.46
767.81	19052.09
768.00	18866.38
768.19	18808.05
768.37	18907.01
768.56	18917.33
768.75	18957.47
768.94	18936.50
769.12	18765.95
769.31	18789.70
769.50	18791.01
769.69	18848.11
769.88	18564.84
770.06	18878.26
770.25	18587.45
770.44	18575.73
770.63	18624.88
770.81	18602.03
771.00	18488.08
771.19	18521.75
771.38	18474.64
771.56	18587.77
771.75	18271.98
771.94	18447.86
772.13	18355.78
772.31	18213.90
772.50	18391.99
772.69	18231.02
772.88	18357.99
773.06	18160.73
773.25	18254.61
773.44	18173.51
773.62	18156.64
773.81	18197.51
774.00	18065.30
774.19	18151.97
774.37	18017.54
774.56	18141.32
774.75	17865.91
774.94	17957.57
775.12	17865.00
775.31	17931.44
775.50	17874.26
775.68	17847.39
775.87	17864.27
776.06	17779.24
776.25	17850.42
776.43	17713.54
776.62	17865.82
776.81	17730.58
776.99	17744.34
777.18	17765.97
777.37	17604.83
777.55	17650.38
777.74	17721.81
777.93	17677.17
778.12	17609.01
778.30	17488.26
778.49	17484.16
778.68	17522.75
778.86	17519.64
779.05	17552.89
779.24	17567.56
779.42	17453.94
779.61	17378.33
779.80	17379.47
779.98	17428.87
780.17	17436.73
780.36	17275.11
780.54	17423.14
780.73	17173.20
780.92	17401.75
781.10	17266.34
781.29	17231.20
781.48	17177.95
781.66	17251.35
781.85	17248.40
782.04	17150.76
782.22	17157.14
782.41	17069.49
782.60	17079.08
782.78	17142.07
782.97	17155.67
783.16	16997.08
783.34	17001.34
783.53	17063.51
783.71	17005.43
783.90	17002.73
784.09	17000.11
784.27	16958.57
784.46	16925.72
784.65	16952.76
784.83	16855.68
785.02	16812.19
785.20	17030.58
785.39	16728.63
785.58	16911.80
785.76	16908.93
785.95	16851.01
786.14	16906.39
786.32	16918.35
786.51	16811.04
786.69	16915.16
786.88	16863.96
787.07	16767.62
787.25	16778.68
787.44	16745.18
787.62	16732.81
787.81	16859.86
788.00	16835.70
788.18	16823.00
788.37	16804.32
788.55	17077.11
788.74	16867.23
788.93	16869.69
789.11	16995.85
789.30	16902.95
789.48	16785.07
789.67	16918.02
789.86	16805.71
790.04	16859.86
790.23	16729.61
790.41	16682.02
790.60	16858.88
790.78	16776.88
790.97	16623.77
791.16	16846.26
791.34	16974.71
791.53	16808.58
791.71	17004.12
791.90	16966.27
792.08	16946.12
792.27	16989.70
792.46	16979.14
792.64	17030.50
792.83	16970.62
793.01	17015.18
793.20	16996.17
793.38	16992.08
793.57	16972.99
793.75	16957.84
793.94	17063.27
794.12	17131.26
794.31	16991.75
794.50	17157.88
794.68	17295.01
794.87	17139.78
795.05	17335.07
795.24	17190.98
795.42	17135.68
795.61	17374.80
795.79	17374.07
795.98	17214.16
796.16	17349.65
796.35	17329.58
796.53	17212.85
796.72	17375.29
796.90	17393.89
797.09	17341.87
797.27	17307.06
797.46	17275.03
797.64	17323.11
797.83	17325.16
798.01	17378.65
798.20	17495.55
798.38	17454.26
798.57	17569.36
798.75	17552.48
798.94	17341.13
799.12	17772.85
799.31	17575.18
799.49	17617.45
799.68	17488.10
799.86	17441.57
800.05	17442.96
800.23	17418.79
800.42	17365.55
800.60	17521.27
800.79	17376.36
800.97	17473.84
801.16	17677.17
801.34	17490.06
801.53	17479.41
801.71	17600.98
801.90	17485.64
802.08	17632.60
802.27	17589.68
802.45	17469.99
802.64	17630.23
802.82	17701.25
803.00	17456.97
803.19	17559.94
803.37	17734.84
803.56	17604.09
803.74	17576.32
803.93	17646.20
804.11	17650.54
804.30	17564.20
804.48	17686.59
804.67	17628.75
804.85	17604.34
805.03	17672.99
805.22	17566.57
805.40	17535.86
805.59	17585.01
805.77	17672.99
805.96	17565.51
806.14	17578.13
806.32	17725.91
806.51	17888.68
806.69	17725.82
806.88	17730.49
807.06	17780.38
807.25	17803.24
807.43	17821.10
807.61	17850.10
807.80	17825.85
807.98	17927.75
808.17	17793.16
808.35	17724.60
808.53	17905.88
808.72	17802.91
808.90	17846.98
809.09	17844.69
809.27	17866.07
809.45	17780.14
809.64	17914.65
809.82	17780.06
810.01	17824.70
810.19	17823.55
810.37	17820.44
810.56	17790.38
810.74	17881.80
810.93	17818.47
811.11	17919.73
811.29	17807.25
811.48	17945.29
811.66	17874.10
811.84	17859.27
812.03	17796.68
812.21	17790.38
812.40	17878.44
812.58	18022.86
812.76	17792.67
812.95	17995.09
813.13	17797.59
813.31	17954.38
813.50	17905.31
813.68	17888.43
813.86	17999.02
814.05	17998.37
814.23	17788.17
814.42	17920.46
814.60	17783.50
814.78	17889.66
814.97	17876.47
815.15	17809.38
815.33	17939.71
815.52	17807.50
815.70	17866.40
815.88	17906.54
816.07	17776.04
816.25	17842.89
816.43	17882.86
816.62	17795.95
816.80	17847.15
816.98	17779.32
817.17	17829.62
817.35	17807.66
817.53	17841.90
817.72	17934.23
817.90	17790.87
818.08	17833.22
818.26	17995.09
818.45	17814.46
818.63	17927.84
818.81	17969.45
819.00	17821.83
819.18	17960.03
819.36	17935.54
819.55	17977.73
819.73	17851.73
819.91	17958.15
820.09	17926.94
820.28	18074.14
820.46	17947.82
820.64	18169.17
820.83	17944.96
821.01	17965.27
821.19	17957.33
821.38	18065.87
821.56	17936.27
821.74	18005.99
821.92	17939.63
822.11	18131.73
822.29	17881.14
822.47	17924.48
822.65	17960.11
822.84	18077.58
823.02	17906.46
823.20	18133.78
823.39	17960.52
823.57	18040.72
823.75	18041.62
823.93	17917.43
824.12	18046.54
824.30	17940.29
824.48	17950.86
824.66	18046.62
824.85	17723.04
825.03	18015.49
825.21	18057.51
825.39	18043.10
825.58	18075.86
825.76	18074.88
825.94	18146.07
826.12	18077.01
826.31	17991.32
826.49	18105.27
826.67	18048.26
826.85	17984.28
827.03	18116.17
827.22	18155.16
827.40	18056.12
827.58	18033.51
827.76	18109.53
827.95	17979.53
828.13	18027.61
828.31	18019.75
828.49	18055.88
828.67	18012.05
828.86	17984.44
829.04	18044.98
829.22	18009.10
829.40	18023.19
829.58	17985.51
829.77	18010.98
829.95	18063.66
830.13	18108.47
830.31	17987.56
830.49	18091.43
830.68	18066.12
830.86	18013.28
831.04	17981.74
831.22	17969.78
831.40	17933.24
831.59	18083.81
831.77	17919.15
831.95	18146.72
832.13	17913.66
832.31	18094.38
832.50	18088.97
832.68	18043.59
832.86	18141.97
833.04	18234.54
833.22	18019.50
833.40	18347.92
833.59	18086.68
833.77	18269.93
833.95	17887.45
834.13	18410.67
834.31	18119.12
834.49	18197.02
834.67	18241.09
834.86	18251.50
835.04	18199.81
835.22	18304.42
835.40	18181.62
835.58	18147.46
835.76	18197.27
835.95	18174.82
836.13	18124.44
836.31	18060.54
836.49	18201.94
836.67	18215.78
836.85	18152.13
837.03	18206.03
837.21	18273.12
837.40	18198.25
837.58	18060.71
837.76	18256.49
837.94	18212.75
838.12	18318.92
838.30	18200.79
838.48	18182.93
838.66	18212.83
838.85	18221.02
839.03	18212.01
839.21	18206.36
839.39	18137.38
839.57	18254.53
839.75	18120.26
839.93	18199.64
840.11	18260.10
840.29	18209.15
840.47	18283.20
840.66	18281.56
840.84	18260.34
841.02	18210.54
841.20	18218.07
841.38	18245.35
841.56	18230.53
841.74	18373.97
841.92	18118.71
842.10	18085.86
842.28	18177.77
842.46	18082.09
842.65	17996.65
842.83	18129.52
843.01	18213.24
843.19	18032.86
843.37	18105.27
843.55	18017.13
843.73	18097.57
843.91	18094.21
844.09	18022.12
844.27	18204.07
844.45	18068.65
844.63	18072.10
844.81	18120.02
844.99	18196.20
845.17	18071.85
845.35	18200.95
845.54	18087.00
845.72	18137.38
845.90	18145.99
846.08	18123.87
846.26	17945.37
846.44	18225.37
846.62	17993.37
846.80	18049.08
846.98	18079.06
847.16	18034.09
847.34	18141.07
847.52	18087.99
847.70	17987.56
847.88	18047.11
848.06	17909.16
848.24	18034.58
848.42	18023.93
848.60	17950.04
848.78	18066.85
848.96	17965.19
849.14	17973.55
849.32	18024.42
849.50	17900.97
849.68	18045.72
849.86	18006.97
850.04	17897.94
850.22	17868.12
850.40	17756.13
850.58	17806.76
850.76	18128.78
850.94	17637.43
851.12	17905.88
851.30	17735.16
851.48	17917.68
851.66	17733.28
851.84	17703.87
852.02	17723.37
852.20	17868.77
852.38	17697.64
852.56	17754.33
852.74	17786.20
852.92	17714.19
853.10	17664.88
853.28	17796.19
853.46	17500.47
853.64	17721.89
853.82	17564.44
854.00	17648.33
854.18	17565.35
854.36	17517.67
854.54	17689.62
854.72	17516.36
854.90	17476.30
855.07	17527.01
855.25	17498.09
855.43	17515.95
855.61	17494.49
855.79	17381.85
855.97	17523.24
856.15	17502.10
856.33	17437.06
856.51	17601.39
856.69	17346.95
856.87	17573.54
857.05	17417.07
857.23	17483.59
857.41	17314.92
857.59	17381.52
857.77	17388.16
857.94	17373.90
858.12	17486.79
858.30	17391.27
858.48	17443.12
858.66	17335.81
858.84	17483.35
859.02	17315.25
859.20	17208.59
859.38	17442.14
859.56	17357.52
859.74	17303.12
859.92	17318.85
860.09	17221.86
860.27	17345.97
860.45	17077.93
860.63	17124.30
860.81	17227.68
860.99	17156.74
861.17	16963.57
861.35	16673.82
861.53	16600.02
861.70	16582.40
861.88	16980.77
862.06	16952.35
862.24	16656.21
862.42	16700.20
862.60	16908.60
862.78	16946.70
862.96	17019.19
863.14	16829.80
863.31	16884.19
863.49	16859.53
863.67	16782.69
863.85	16825.21
864.03	16860.03
864.21	16786.38
864.39	16808.83
864.56	16727.24
864.74	16769.26
864.92	16637.53
865.10	16594.77
865.28	16610.42
865.46	16758.94
865.64	16438.88
865.81	16574.87
865.99	16384.98
866.17	16485.08
866.35	16388.75
866.53	16371.13
866.71	16349.18
866.88	16354.91
867.06	16250.71
867.24	16301.42
867.42	16208.85
867.60	16288.15
867.78	16188.13
867.95	16442.40
868.13	16243.26
868.31	16377.85
868.49	16300.60
868.67	16203.77
868.84	16155.28
869.02	16211.47
869.20	15880.20
869.38	16097.53
869.56	16001.60
869.73	15935.33
869.91	15981.12
870.09	15952.86
870.27	15835.22
870.45	15888.39
870.62	15777.14
870.80	15934.92
870.98	15818.84
871.16	15830.06
871.34	15792.71
871.51	15840.71
871.69	15743.88
871.87	15815.97
872.05	15800.82
872.23	15773.29
872.40	15645.58
872.58	15780.83
872.76	15628.70
872.94	15582.09
873.11	15624.53
873.29	15478.30
873.47	15552.27
873.65	15472.08
873.83	15347.89
874.00	15376.40
874.18	15350.43
874.36	15313.89
874.54	15376.89
874.71	15149.97
874.89	15132.28
875.07	15185.11
875.25	15163.65
875.42	15163.41
875.60	15105.98
875.78	15234.10
875.96	15078.54
876.13	15178.15
876.31	14970.98
876.49	14986.87
876.66	14866.37
876.84	15080.18
877.02	14946.24
877.20	14999.49
877.37	15011.94
877.55	14975.16
877.73	14923.30
877.91	14870.46
878.08	14969.91
878.26	14926.99
878.44	14894.14
878.61	14911.10
878.79	14833.77
878.97	14814.60
879.15	14891.93
879.32	14834.99
879.50	14799.61
879.68	14941.32
879.85	14760.94
880.03	14885.21
880.21	14739.97
880.38	14877.35
880.56	14685.74
880.74	14856.05
880.92	14701.63
881.09	14762.82
881.27	14736.12
881.45	14769.38
881.62	14747.50
881.80	14705.97
881.98	14626.76
882.15	14738.74
882.33	14637.82
882.51	14641.34
882.68	14522.39
882.86	14630.93
883.04	14474.39
883.21	14536.56
883.39	14595.05
883.57	14497.73
883.74	14539.60
883.92	14578.83
884.10	14506.17
884.27	14514.12
884.45	14377.64
884.63	14562.78
884.80	14482.83
884.98	14493.64
885.16	14431.79
885.33	14449.89
885.51	14465.95
885.69	14444.73
885.86	14436.46
886.04	14514.61
886.21	14301.21
886.39	14449.16
886.57	14247.88
886.74	14430.15
886.92	14383.29
887.10	14394.68
887.27	14352.66
887.45	14340.29
887.62	14353.89
887.80	14388.86
887.98	14465.95
888.15	14416.64
888.33	14329.72
888.51	14463.82
888.68	14332.34
888.86	14385.42
889.03	14284.58
889.21	14396.89
889.39	14370.35
889.56	14356.10
889.74	14322.84
889.91	14302.36
890.09	14303.18
890.27	14322.59
890.44	14297.77
890.62	14285.81
890.79	14258.12
890.97	14270.90
891.14	14216.84
891.32	14223.96
891.50	14123.94
891.67	14185.21
891.85	14119.52
892.02	14126.40
892.20	14168.01
892.38	14095.92
892.55	14033.42
892.73	14154.25
892.90	13987.46
893.08	14031.54
893.25	13973.37
893.43	14114.03
893.60	13971.24
893.78	14054.47
893.96	14008.43
894.13	14060.29
894.31	14155.72
894.48	14061.68
894.66	14081.92
894.83	14112.63
895.01	14070.20
895.18	14073.40
895.36	13964.85
895.53	14104.44
895.71	14001.14
895.89	14007.94
896.06	13901.28
896.24	13952.07
896.41	13878.76
896.59	13952.07
896.76	13754.16
896.94	13863.52
897.11	13833.62
897.29	13902.51
897.46	13772.84
897.64	13818.55
897.81	13812.73
897.99	13676.58
898.16	13865.73
898.34	13826.90
898.51	13734.99
898.69	13676.50
898.86	13714.84
899.04	13708.94
899.21	13611.78
899.39	13716.80
899.56	13616.70
899.74	13758.75
899.91	13577.38
900.09	13513.56
900.26	13588.44
900.44	13413.54
900.61	13489.89
900.79	13596.55
900.96	13522.16
901.14	13464.58
901.31	13388.39
901.49	13422.22
901.66	13451.71
901.84	13429.51
902.01	13366.19
902.19	13333.67
902.36	13270.26
902.54	13239.05
902.71	13243.64
902.88	13268.05
903.06	13008.86
903.23	13187.77
903.41	13042.12
903.58	12979.70
903.76	12956.92
903.93	13001.73
904.11	13015.50
904.28	12917.60
904.45	12876.89
904.63	12886.56
904.80	12731.65
904.98	12773.02
905.15	12693.72
905.33	12786.86
905.50	12702.40
905.68	12710.19
905.85	12683.15
906.02	12614.09
906.20	12690.53
906.37	12551.59
906.55	12506.95
906.72	12620.65
906.90	12477.04
907.07	12405.12
907.24	12443.79
907.42	12323.69
907.59	12293.22
907.77	12253.49
907.94	12266.60
908.11	12271.59
908.29	12234.89
908.46	12216.87
908.64	12176.24
908.81	12173.13
908.98	12060.90
909.16	12147.90
909.33	12074.66
909.51	12017.07
909.68	11934.58
909.85	11916.23
910.03	11938.51
910.20	11836.60
910.37	11835.95
910.55	11824.07
910.72	11752.06
910.90	11670.55
911.07	11651.22
911.24	11578.07
911.42	11706.84
911.59	11549.97
911.76	11565.37
911.94	11546.12
912.11	11517.04
912.29	11497.05
912.46	11420.95
912.63	11493.86
912.81	11355.74
912.98	11452.24
913.15	11293.65
913.33	11350.58
913.50	11344.93
913.67	11217.95
913.85	11177.90
914.02	11174.70
914.19	11125.39
914.37	11063.05
914.54	11117.69
914.71	11041.09
914.89	11061.49
915.06	11024.46
915.23	10992.92
915.41	10973.51
915.58	10883.81
915.75	10896.50
915.93	10828.84
916.10	10776.58
916.27	10738.24
916.45	10730.78
916.62	10652.47
916.79	10687.61
916.97	10621.59
917.14	10586.93
917.31	10524.43
917.49	10526.56
917.66	10554.58
917.83	10466.59
918.00	10454.63
918.18	10390.08
918.35	10324.88
918.52	10398.52
918.70	10303.82
918.87	10256.23
919.04	10289.81
919.21	10263.93
919.39	10205.85
919.56	10238.61
919.73	10125.98
919.91	10146.87
920.08	10118.77
920.25	10071.01
920.42	10156.20
920.60	10059.13
920.77	10020.87
920.94	10034.06
921.11	9961.81
921.29	10003.59
921.46	9869.00
921.63	9960.17
921.81	9838.11
921.98	9842.05
922.15	9843.68
922.32	9835.25
922.50	9744.81
922.67	9709.67
922.84	9679.11
923.01	9603.58
923.19	9614.39
923.36	9615.38
923.53	9463.25
923.70	9563.52
923.87	9501.84
924.05	9532.48
924.22	9435.89
924.39	9459.16
924.56	9367.74
924.74	9396.82
924.91	9372.32
925.08	9324.73
925.25	9261.32
925.43	9273.20
925.60	9168.02
925.77	9244.78
925.94	9184.40
926.11	9179.08
926.29	9119.28
926.46	9090.36
926.63	9086.59
926.80	9009.10
926.97	8956.26
927.15	8984.03
927.32	8897.93
927.49	8871.06
927.66	8843.29
927.83	8858.12
928.01	8778.90
928.18	8783.08
928.35	8703.46
928.52	8783.25
928.69	8677.49
928.87	8706.73
929.04	8668.31
929.21	8705.83
929.38	8616.30
929.55	8672.25
929.72	8569.03
929.90	8574.68
930.07	8592.46
930.24	8553.46
930.41	8521.60
930.58	8503.58
930.75	8559.28
930.93	8487.27
931.10	8486.70
931.27	8381.27
931.44	8428.78
931.61	8385.53
931.78	8384.63
931.95	8331.55
932.13	8247.25
932.30	8366.77
932.47	8206.87
932.64	8274.29
932.81	8236.85
932.98	8239.72
933.15	8197.45
933.33	8143.87
933.50	8238.08
933.67	8121.26
933.84	8170.25
934.01	8154.03
934.18	8153.54
934.35	8147.39
934.52	8109.71
934.70	8130.19
934.87	8071.13
935.04	8035.82
935.21	8029.51
935.38	8009.61
935.55	7988.80
935.72	8037.46
935.89	7920.07
936.06	7944.81
936.24	7885.34
936.41	7943.99
936.58	7840.12
936.75	7819.55
936.92	7793.59
937.09	7751.89
937.26	7715.27
937.43	7733.46
937.60	7750.99
937.77	7709.70
937.94	7718.71
938.12	7695.69
938.29	7626.55
938.46	7674.56
938.63	7604.93
938.80	7663.17
938.97	7560.20
939.14	7558.89
939.31	7550.62
939.48	7579.37
939.65	7489.75
939.82	7464.35
939.99	7485.82
940.16	7434.95
940.33	7428.72
940.50	7424.05
940.67	7383.17
940.85	7405.05
941.02	7378.01
941.19	7361.22
941.36	7376.05
941.53	7343.36
941.70	7316.66
941.87	7265.29
942.04	7270.70
942.21	7250.71
942.38	7244.40
942.55	7219.25
942.72	7202.13
942.89	7226.54
943.06	7176.90
943.23	7155.11
943.40	7107.76
943.57	7127.83
943.74	7124.47
943.91	7138.48
944.08	7105.71
944.25	7110.88
944.42	7058.28
944.59	7046.90
944.76	7076.47
944.93	7045.67
945.10	7052.88
945.27	7031.00
945.44	6951.63
945.61	6978.66
945.78	6938.60
945.95	6959.08
946.12	6879.62
946.29	6950.15
946.46	6912.22
946.63	6874.46
946.80	6832.92
946.97	6855.45
947.14	6801.39
947.31	6869.95
947.48	6784.67
947.65	6780.66
947.82	6756.17
947.99	6803.84
948.16	6738.39
948.33	6771.40
948.50	6688.83
948.67	6704.23
948.84	6682.03
949.01	6667.45
949.18	6681.62
949.35	6675.07
949.52	6614.78
949.68	6605.68
949.85	6598.15
950.02	6602.08
950.19	6565.46
950.36	6529.66
950.53	6556.04
950.70	6510.82
950.87	6486.65
951.04	6558.42
951.21	6475.19
951.38	6471.01
951.55	6463.80
951.72	6456.18
951.89	6418.66
952.06	6435.37
952.23	6429.31
952.39	6392.20
952.56	6360.58
952.73	6416.45
952.90	6358.70
953.07	6404.00
953.24	6311.27
953.41	6321.59
953.58	6294.88
953.75	6313.40
953.92	6282.43
954.09	6263.18
954.25	6259.41
954.42	6250.97
954.59	6225.25
954.76	6246.39
954.93	6193.30
955.10	6232.79
955.27	6176.43
955.44	6207.97
955.61	6163.98
955.77	6208.38
955.94	6175.53
956.11	6170.37
956.28	6162.83
956.45	6124.66
956.62	6130.55
956.79	6140.14
956.96	6116.38
957.12	6144.97
957.29	6108.52
957.46	6100.33
957.63	6045.11
957.80	6045.19
957.97	6017.01
958.14	6072.96
958.30	5998.99
958.47	6040.28
958.64	5992.19
958.81	5987.93
958.98	5950.41
959.15	5962.95
959.32	5987.77
959.48	5953.53
959.65	5902.57
959.82	5923.22
959.99	5875.54
960.16	5921.82
960.33	5891.43
960.49	5873.66
960.66	5863.83
960.83	5864.89
961.00	5852.77
961.17	5857.03
961.33	5849.24
961.50	5801.24
961.67	5791.74
961.84	5808.04
962.01	5762.82
962.18	5810.01
962.34	5765.77
962.51	5774.70
962.68	5744.88
962.85	5778.30
963.02	5716.45
963.18	5747.26
963.35	5718.67
963.52	5703.84
963.69	5712.03
963.86	5723.91
964.02	5658.95
964.19	5711.95
964.36	5678.28
964.53	5683.52
964.69	5609.39
964.86	5662.80
965.03	5591.20
965.20	5614.96
965.37	5579.08
965.53	5590.05
965.70	5567.77
965.87	5583.34
966.04	5554.26
966.20	5537.46
966.37	5518.29
966.54	5483.07
966.71	5524.68
966.87	5475.37
967.04	5506.58
967.21	5474.96
967.38	5475.61
967.54	5479.87
967.71	5458.57
967.88	5468.32
968.05	5425.23
968.21	5438.91
968.38	5389.93
968.55	5410.49
968.72	5409.34
968.88	5369.28
969.05	5383.70
969.22	5350.28
969.39	5329.14
969.55	5370.92
969.72	5320.87
969.89	5355.85
970.05	5347.66
970.22	5342.00
970.39	5306.37
970.56	5334.55
970.72	5300.72
970.89	5284.01
971.06	5291.54
971.22	5276.22
971.39	5290.80
971.56	5299.57
971.73	5237.15
971.89	5297.69
972.06	5250.09
972.23	5245.42
972.39	5236.33
972.56	5244.11
972.73	5197.99
972.89	5218.47
973.06	5218.22
973.23	5201.02
973.39	5174.89
973.56	5188.57
973.73	5179.39
973.89	5178.74
974.06	5169.89
974.23	5179.89
974.39	5123.69
974.56	5156.21
974.73	5120.99
974.89	5110.83
975.06	5108.86
975.23	5134.99
975.39	5070.03
975.56	5088.63
975.73	5067.99
975.89	5074.62
976.06	5070.52
976.23	5054.63
976.39	5044.80
976.56	5032.27
976.73	5024.73
976.89	5026.45
977.06	4991.31
977.23	4990.82
977.39	4986.23
977.56	4993.52
977.72	4941.01
977.89	4984.76
978.06	4927.90
978.22	4939.78
978.39	4939.45
978.56	4939.78
978.72	4923.64
978.89	4939.29
979.05	4939.37
979.22	4934.38
979.39	4906.93
979.55	4907.92
979.72	4897.68
979.88	4913.57
980.05	4883.18
980.22	4870.15
980.38	4884.41
980.55	4865.81
980.71	4847.13
980.88	4867.61
981.05	4867.53
981.21	4846.72
981.38	4848.28
981.54	4841.89
981.71	4797.90
981.88	4837.38
982.04	4825.92
982.21	4807.57
982.37	4788.72
982.54	4831.57
982.70	4767.75
982.87	4804.62
983.04	4753.01
983.20	4807.32
983.37	4763.90
983.53	4773.49
983.70	4770.62
983.86	4776.19
984.03	4748.83
984.20	4772.09
984.36	4748.75
984.53	4735.48
984.69	4726.14
984.86	4711.56
985.02	4708.03
985.19	4696.32
985.35	4683.95
985.52	4691.73
985.68	4670.43
985.85	4704.10
986.02	4672.48
986.18	4661.75
986.35	4649.22
986.51	4680.84
986.68	4661.91
986.84	4629.15
987.01	4638.65
987.17	4658.88
987.34	4634.80
987.50	4623.17
987.67	4601.62
987.83	4626.93
988.00	4601.46
988.16	4610.80
988.33	4609.16
988.49	4608.59
988.66	4561.48
988.82	4588.43
988.99	4590.64
989.15	4584.42
989.32	4536.17
989.48	4549.11
989.65	4521.34
989.81	4526.50
989.98	4508.48
990.14	4483.74
990.31	4504.38
990.47	4523.64
990.64	4509.22
990.80	4487.26
990.97	4455.97
991.13	4506.10
991.30	4486.12
991.46	4464.24
991.63	4445.16
991.79	4466.05
991.95	4411.24
992.12	4457.77
992.28	4423.28
992.45	4431.23
992.61	4436.31
992.78	4402.48
992.94	4419.19
993.11	4426.81
993.27	4404.94
993.44	4420.17
993.60	4397.40
993.76	4408.13
993.93	4401.00
994.09	4399.77
994.26	4380.93
994.42	4405.02
994.59	4375.12
994.75	4372.82
994.91	4345.63
995.08	4341.94
995.24	4315.32
995.41	4328.34
995.57	4332.76
995.74	4321.54
995.90	4310.89
996.06	4302.37
996.23	4304.17
996.39	4301.23
996.56	4284.60
996.72	4302.21
996.88	4303.03
997.05	4304.34
997.21	4297.38
997.38	4297.70
997.54	4244.37
997.70	4260.51
997.87	4271.24
998.03	4253.47
998.20	4211.52
998.36	4229.87
998.52	4227.09
998.69	4275.59
998.85	4211.93
999.02	4234.46
999.18	4216.52
999.34	4214.72
999.51	4209.89
999.67	4242.65
999.83	4203.09
1000.00	4194.40
1000.16	4184.00
1000.33	4181.13
1000.49	4175.40
1000.65	4178.92
1000.82	4191.70
1000.98	4164.50
1001.14	4152.13
1001.31	4176.55
1001.47	4172.70
1001.63	4177.28
1001.80	4142.30
1001.96	4138.13
1002.12	4138.04
1002.29	4152.13
1002.45	4133.87
1002.61	4117.40
1002.78	4109.62
1002.94	4115.76
1003.10	4095.45
1003.27	4084.22
1003.43	4073.16
1003.59	4086.03
1003.76	4086.76
1003.92	4081.52
1004.08	4077.26
1004.25	4107.24
1004.41	4076.03
1004.57	4079.96
1004.74	4053.26
1004.90	4074.39
1005.06	4041.71
1005.23	4031.96
1005.39	4046.95
1005.55	4049.08
1005.71	4039.50
1005.88	4054.81
1006.04	4066.77
1006.20	4044.66
1006.37	3998.37
1006.53	4015.25
1006.69	4006.15
1006.85	4024.67
1007.02	3987.64
1007.18	3998.70
1007.34	4001.81
1007.51	4030.07
1007.67	3982.64
1007.83	3996.32
1007.99	3987.23
1008.16	3998.86
1008.32	3964.62
1008.48	4000.75
1008.64	3956.92
1008.81	3969.62
1008.97	3960.69
1009.13	3980.27
1009.29	3952.91
1009.46	3950.12
1009.62	3937.18
1009.78	3931.69
1009.95	3947.91
1010.11	3947.75
1010.27	3928.66
1010.43	3939.39
1010.59	3933.66
1010.76	3912.52
1010.92	3913.83
1011.08	3910.15
1011.24	3887.37
1011.41	3938.57
1011.57	3887.13
1011.73	3902.61
1011.89	3848.95
1012.06	3884.83
1012.22	3877.87
1012.38	3866.97
1012.54	3882.38
1012.70	3872.87
1012.87	3830.52
1013.03	3850.59
1013.19	3854.11
1013.35	3867.47
1013.51	3822.57
1013.68	3856.33
1013.84	3821.76
1014.00	3835.60
1014.16	3825.28
1014.32	3828.47
1014.49	3823.31
1014.65	3846.33
1014.81	3815.53
1014.97	3836.75
1015.13	3802.09
1015.30	3819.38
1015.46	3805.45
1015.62	3808.40
1015.78	3809.06
1015.94	3803.32
1016.10	3784.32
1016.27	3796.85
1016.43	3768.51
1016.59	3776.13
1016.75	3792.10
1016.91	3786.53
1017.07	3766.62
1017.24	3764.41
1017.40	3757.94
1017.56	3785.22
1017.72	3744.26
1017.88	3740.41
1018.04	3751.06
1018.21	3747.21
1018.37	3752.04
1018.53	3742.05
1018.69	3736.97
1018.85	3742.29
1019.01	3721.08
1019.17	3745.57
1019.34	3714.03
1019.50	3736.31
1019.66	3707.64
1019.82	3703.30
1019.98	3697.57
1020.14	3732.87
1020.30	3705.84
1020.46	3717.96
1020.63	3686.51
1020.79	3707.64
1020.95	3686.75
1021.11	3705.92
1021.27	3686.18
1021.43	3688.15
1021.59	3685.11
1021.75	3688.64
1021.91	3657.02
1022.07	3663.73
1022.24	3634.65
1022.40	3663.00
1022.56	3639.49
1022.72	3659.72
1022.88	3645.14
1023.04	3665.54
1023.20	3652.51
1023.36	3656.44
1023.52	3651.86
1023.68	3654.23
1023.84	3622.69
1024.01	3646.61
1024.17	3624.25
1024.33	3622.61
1024.49	3624.50
1024.65	3618.27
1024.81	3629.16
1024.97	3616.63
1025.13	3621.14
1025.29	3632.61
1025.45	3592.96
1025.61	3641.86
1025.77	3597.30
1025.93	3627.44
1026.09	3576.90
1026.25	3605.41
1026.41	3579.52
1026.57	3599.67
1026.73	3587.06
1026.90	3576.57
1027.06	3587.63
1027.22	3598.61
1027.38	3582.80
1027.54	3601.97
1027.70	3584.93
1027.86	3556.17
1028.02	3576.24
1028.18	3574.03
1028.34	3579.03
1028.50	3591.48
1028.66	3559.12
1028.82	3582.63
1028.98	3549.13
1029.14	3563.88
1029.30	3559.29
1029.46	3555.85
1029.62	3561.42
1029.78	3539.14
1029.94	3539.95
1030.10	3540.36
1030.26	3499.57
1030.42	3524.14
1030.58	3523.90
1030.74	3541.76
1030.90	3509.24
1031.06	3508.17
1031.22	3517.51
1031.38	3510.46
1031.54	3511.04
1031.70	3521.11
1031.86	3521.44
1032.02	3508.58
1032.18	3483.35
1032.34	3517.10
1032.50	3488.84
1032.66	3533.16
1032.82	3478.19
1032.98	3514.97
1033.14	3508.74
1033.30	3513.33
1033.45	3484.99
1033.61	3500.80
1033.77	3496.54
1033.93	3499.00
1034.09	3464.10
1034.25	3476.71
1034.41	3462.05
1034.57	3486.30
1034.73	3458.94
1034.89	3471.47
1035.05	3470.32
1035.21	3478.60
1035.37	3462.21
1035.53	3461.89
1035.69	3450.83
1035.85	3467.54
1036.01	3430.02
1036.16	3475.65
1036.32	3457.38
1036.48	3446.57
1036.64	3424.37
1036.80	3469.67
1036.96	3436.82
1037.12	3439.03
1037.28	3445.09
1037.44	3442.47
1037.60	3443.37
1037.76	3433.38
1037.91	3430.84
1038.07	3451.65
1038.23	3441.32
1038.39	3440.67
1038.55	3437.56
1038.71	3431.25
1038.87	3434.77
1039.03	3443.78
1039.19	3421.83
1039.35	3444.77
1039.50	3434.77
1039.66	3429.69
1039.82	3417.65
1039.98	3422.24
1040.14	3414.54
1040.30	3408.48
1040.46	3395.61
1040.62	3404.30
1040.77	3415.03
1040.93	3420.68
1041.09	3401.18
1041.25	3412.16
1041.41	3393.73
1041.57	3396.60
1041.73	3396.60
1041.88	3396.60

