SpectraSuite Data File
++++++++++++++++++++++++++++++++++++
Date: Tue Sep 20 12:04:42 EDT 2022
User: Laboratoire
Dark Spectrum Present: No
Reference Spectrum Present: No
Number of Sampled Component Spectra: 1
Spectrometers: FLMT00174
Integration Time (usec): 15000 (FLMT00174)
Spectra Averaged: 25 (FLMT00174)
Boxcar Smoothing: 0 (FLMT00174)
Correct for Electrical Dark: No (FLMT00174)
Strobe/Lamp Enabled: No (FLMT00174)
Correct for Detector Non-linearity: No (FLMT00174)
Correct for Stray Light: No (FLMT00174)
Number of Pixels in Processed Spectrum: 3648
>>>>>Begin Processed Spectral Data<<<<<
345.74	3164.11
345.96	3164.11
346.18	3164.11
346.39	3173.37
346.61	3234.97
346.83	3229.73
347.05	3207.69
347.27	3216.38
347.49	3218.26
347.71	3222.52
347.93	3217.11
348.15	3223.91
348.36	3215.31
348.58	3221.54
348.80	3214.41
349.02	3217.69
349.24	3227.76
349.46	3300.18
349.68	3328.36
349.90	3337.04
350.11	3314.92
350.33	3325.74
350.55	3306.73
350.77	3330.57
350.99	3318.45
351.21	3327.95
351.43	3320.33
351.65	3338.60
351.86	3309.11
352.08	3330.90
352.30	3313.45
352.52	3321.23
352.74	3325.82
352.96	3307.80
353.18	3323.77
353.39	3320.17
353.61	3317.05
353.83	3344.66
354.05	3343.60
354.27	3333.52
354.49	3338.11
354.70	3325.57
354.92	3316.56
355.14	3320.00
355.36	3313.29
355.58	3317.46
355.80	3330.90
356.02	3334.67
356.23	3328.11
356.45	3321.97
356.67	3330.49
356.89	3336.80
357.11	3325.66
357.33	3337.70
357.54	3325.41
357.76	3319.10
357.98	3317.63
358.20	3329.92
358.42	3322.71
358.63	3328.77
358.85	3331.80
359.07	3338.76
359.29	3307.06
359.51	3305.91
359.73	3315.17
359.94	3318.94
360.16	3308.70
360.38	3321.23
360.60	3301.74
360.82	3336.63
361.03	3333.11
361.25	3340.73
361.47	3337.29
361.69	3336.22
361.91	3342.53
362.12	3315.74
362.34	3347.45
362.56	3361.62
362.78	3326.47
363.00	3344.99
363.21	3312.30
363.43	3347.53
363.65	3323.03
363.87	3320.66
364.09	3336.14
364.30	3324.43
364.52	3318.86
364.74	3336.63
364.96	3324.43
365.17	3351.79
365.39	3327.05
365.61	3324.67
365.83	3341.06
366.05	3346.54
366.26	3322.30
366.48	3337.53
366.70	3361.62
366.92	3327.62
367.13	3332.54
367.35	3340.89
367.57	3313.70
367.79	3333.93
368.01	3349.17
368.22	3346.14
368.44	3327.21
368.66	3340.48
368.88	3320.90
369.09	3328.28
369.31	3359.32
369.53	3345.56
369.75	3316.73
369.96	3347.86
370.18	3344.01
370.40	3354.00
370.62	3345.97
370.83	3320.49
371.05	3342.86
371.27	3342.86
371.49	3315.25
371.70	3335.49
371.92	3337.29
372.14	3357.77
372.36	3347.53
372.57	3359.41
372.79	3355.47
373.01	3345.89
373.22	3327.87
373.44	3341.47
373.66	3355.23
373.88	3346.63
374.09	3330.00
374.31	3336.47
374.53	3331.55
374.75	3368.99
374.96	3347.12
375.18	3380.87
375.40	3337.45
375.61	3358.26
375.83	3349.33
376.05	3369.32
376.27	3373.41
376.48	3342.61
376.70	3363.75
376.92	3352.03
377.13	3348.10
377.35	3353.75
377.57	3353.10
377.79	3349.00
378.00	3347.45
378.22	3357.44
378.44	3343.60
378.65	3389.22
378.87	3361.45
379.09	3358.91
379.30	3361.95
379.52	3383.57
379.74	3350.80
379.96	3370.47
380.17	3352.52
380.39	3364.40
380.61	3383.98
380.82	3360.55
381.04	3357.60
381.26	3377.51
381.47	3375.87
381.69	3373.33
381.91	3371.04
382.12	3352.44
382.34	3373.66
382.56	3378.90
382.77	3379.23
382.99	3383.49
383.21	3358.34
383.42	3388.65
383.64	3393.81
383.86	3388.08
384.07	3397.09
384.29	3387.67
384.51	3377.26
384.72	3382.75
384.94	3391.19
385.16	3390.62
385.37	3382.51
385.59	3382.75
385.81	3402.33
386.02	3425.43
386.24	3420.35
386.46	3387.50
386.67	3412.16
386.89	3431.25
387.11	3440.92
387.32	3426.99
387.54	3400.37
387.76	3437.15
387.97	3435.75
388.19	3441.82
388.40	3434.36
388.62	3434.44
388.84	3455.91
389.05	3452.96
389.27	3442.39
389.49	3462.46
389.70	3445.09
389.92	3449.19
390.14	3458.04
390.35	3472.62
390.57	3478.02
390.78	3473.19
391.00	3479.83
391.22	3491.62
391.43	3476.14
391.65	3488.51
391.86	3496.29
392.08	3503.58
392.30	3496.05
392.51	3497.77
392.73	3519.80
392.95	3527.75
393.16	3495.96
393.38	3516.28
393.59	3504.81
393.81	3524.55
394.03	3523.24
394.24	3514.48
394.46	3524.64
394.67	3512.10
394.89	3525.46
395.11	3530.21
395.32	3551.01
395.54	3548.31
395.75	3530.53
395.97	3529.06
396.19	3523.82
396.40	3535.12
396.62	3523.57
396.83	3527.67
397.05	3536.76
397.26	3566.91
397.48	3524.14
397.70	3524.39
397.91	3560.35
398.13	3544.71
398.34	3549.38
398.56	3574.85
398.78	3545.53
398.99	3584.27
399.21	3557.16
399.42	3580.18
399.64	3541.02
399.85	3575.10
400.07	3565.68
400.29	3596.64
400.50	3580.34
400.72	3592.79
400.93	3590.91
401.15	3587.39
401.36	3608.77
401.58	3614.01
401.79	3595.09
402.01	3606.47
402.23	3608.77
402.44	3642.52
402.66	3646.37
402.87	3634.98
403.09	3647.76
403.30	3651.04
403.52	3644.57
403.73	3635.88
403.95	3647.35
404.16	3662.18
404.38	3681.43
404.60	3664.96
404.81	3701.99
405.03	3693.96
405.24	3705.19
405.46	3724.60
405.67	3742.54
405.89	3739.10
406.10	3729.84
406.32	3764.82
406.53	3773.18
406.75	3807.75
406.96	3785.96
407.18	3789.97
407.39	3799.97
407.61	3836.58
407.82	3825.93
408.04	3866.97
408.25	3835.19
408.47	3878.12
408.68	3912.52
408.90	3889.09
409.12	3915.06
409.33	3930.05
409.55	3919.65
409.76	3926.94
409.98	3931.36
410.19	3978.63
410.41	3993.95
410.62	4001.24
410.84	3976.34
411.05	4010.41
411.27	4032.70
411.48	4040.64
411.70	4061.37
411.91	4078.65
412.12	4069.31
412.34	4082.01
412.55	4108.80
412.77	4111.83
412.98	4132.39
413.20	4119.12
413.41	4137.88
413.63	4147.22
413.84	4146.81
414.06	4179.49
414.27	4160.24
414.49	4185.80
414.70	4168.19
414.92	4173.60
415.13	4198.34
415.35	4222.01
415.56	4194.24
415.78	4199.07
415.99	4221.27
416.21	4225.94
416.42	4232.09
416.63	4234.30
416.85	4232.91
417.06	4218.82
417.28	4207.84
417.49	4263.95
417.71	4228.73
417.92	4236.35
418.14	4233.56
418.35	4224.14
418.57	4255.68
418.78	4249.94
418.99	4244.62
419.21	4265.67
419.42	4268.46
419.64	4233.64
419.85	4246.91
420.07	4291.31
420.28	4263.38
420.50	4264.77
420.71	4291.97
420.92	4257.89
421.14	4290.49
421.35	4269.52
421.57	4273.62
421.78	4276.65
422.00	4309.17
422.21	4312.45
422.42	4307.21
422.64	4280.91
422.85	4351.11
423.07	4342.19
423.28	4317.28
423.50	4334.48
423.71	4361.52
423.92	4365.12
424.14	4366.76
424.35	4381.18
424.57	4408.79
424.78	4397.48
424.99	4404.69
425.21	4420.50
425.42	4443.93
425.64	4414.36
425.85	4475.22
426.06	4449.66
426.28	4477.52
426.49	4506.92
426.71	4506.84
426.92	4507.66
427.13	4547.72
427.35	4589.50
427.56	4587.78
427.78	4572.79
427.99	4628.25
428.20	4664.70
428.42	4696.40
428.63	4689.19
428.84	4649.71
429.06	4705.09
429.27	4741.38
429.49	4737.61
429.70	4807.89
429.91	4792.98
430.13	4823.95
430.34	4856.14
430.56	4891.86
430.77	4943.47
430.98	4911.11
431.20	4963.87
431.41	4993.60
431.62	5014.25
431.84	4992.95
432.05	5086.91
432.26	5102.72
432.48	5099.11
432.69	5172.76
432.91	5184.72
433.12	5215.85
433.33	5256.23
433.55	5345.12
433.76	5367.15
433.97	5370.18
434.19	5403.28
434.40	5467.18
434.61	5481.18
434.83	5515.43
435.04	5523.54
435.25	5578.26
435.47	5640.19
435.68	5612.50
435.89	5721.62
436.11	5728.41
436.32	5774.37
436.53	5777.16
436.75	5816.31
436.96	5850.96
437.17	5855.39
437.39	5888.81
437.60	5940.50
437.81	5976.05
438.03	6018.32
438.24	6056.58
438.45	6127.77
438.67	6090.74
438.88	6179.95
439.09	6246.88
439.31	6235.90
439.52	6292.10
439.73	6278.74
439.94	6233.93
440.16	6309.46
440.37	6301.85
440.58	6389.33
440.80	6382.37
441.01	6367.05
441.22	6540.56
441.44	6490.34
441.65	6451.67
441.86	6493.95
442.08	6526.38
442.29	6473.47
442.50	6554.89
442.71	6557.35
442.93	6600.28
443.14	6524.66
443.35	6629.68
443.57	6515.33
443.78	6619.36
443.99	6632.80
444.20	6535.07
444.42	6608.63
444.63	6604.62
444.84	6643.94
445.06	6686.54
445.27	6586.35
445.48	6596.10
445.69	6618.71
445.91	6628.21
446.12	6582.01
446.33	6633.21
446.54	6694.65
446.76	6599.37
446.97	6652.13
447.18	6592.66
447.39	6662.62
447.61	6639.35
447.82	6670.73
448.03	6622.23
448.25	6662.21
448.46	6664.42
448.67	6726.68
448.88	6663.19
449.10	6718.40
449.31	6681.62
449.52	6657.62
449.73	6687.11
449.95	6759.20
450.16	6673.76
450.37	6767.47
450.58	6848.16
450.79	6681.46
451.01	6745.27
451.22	6703.98
451.43	6745.35
451.64	6770.50
451.86	6753.63
452.07	6807.45
452.28	6807.45
452.49	6912.55
452.71	6786.23
452.92	6815.56
453.13	6877.00
453.34	6861.10
453.55	6952.77
453.77	6983.82
453.98	6960.14
454.19	6909.52
454.40	6979.15
454.62	7019.37
454.83	6965.14
455.04	7124.88
455.25	6985.38
455.46	7204.10
455.68	7137.83
455.89	7122.02
456.10	7148.23
456.31	7178.70
456.52	7203.12
456.74	7216.06
456.95	7343.28
457.16	7330.58
457.37	7427.33
457.58	7372.77
457.80	7405.78
458.01	7404.31
458.22	7681.28
458.43	7568.64
458.64	7623.93
458.86	7561.59
459.07	7677.83
459.28	7683.24
459.49	7779.09
459.70	7985.36
459.91	7939.81
460.13	7937.19
460.34	8014.77
460.55	7987.41
460.76	8144.85
460.97	8181.80
461.19	8204.33
461.40	8441.56
461.61	8340.56
461.82	8428.13
462.03	8477.20
462.24	8545.60
462.46	8569.36
462.67	8632.02
462.88	8807.90
463.09	8769.07
463.30	8925.13
463.51	8915.79
463.72	9126.81
463.94	9193.91
464.15	9170.23
464.36	9171.30
464.57	9471.94
464.78	9481.77
464.99	9611.28
465.20	9577.20
465.42	9811.49
465.63	9817.06
465.84	9875.31
466.05	10079.28
466.26	10164.64
466.47	10292.60
466.68	10248.12
466.90	10464.22
467.11	10460.04
467.32	10670.74
467.53	10835.56
467.74	10712.35
467.95	10863.74
468.16	11109.90
468.37	11248.51
468.59	11284.06
468.80	11540.88
469.01	11415.46
469.22	11695.21
469.43	11956.78
469.64	11833.74
469.85	12097.84
470.06	12181.07
470.28	12357.61
470.49	12197.46
470.70	12424.53
470.91	12767.94
471.12	12634.00
471.33	12989.61
471.54	12898.19
471.75	13037.21
471.96	13401.99
472.17	13358.74
472.39	13726.80
472.60	13488.41
472.81	13904.32
473.02	13788.32
473.23	14104.20
473.44	14144.50
473.65	14132.30
473.86	14317.51
474.07	14415.16
474.28	14513.22
474.49	14886.85
474.71	14804.52
474.92	15025.29
475.13	14946.40
475.34	15035.70
475.55	15107.70
475.76	15220.91
475.97	15575.54
476.18	15558.34
476.39	15764.44
476.60	15914.52
476.81	15945.48
477.02	16058.70
477.23	16065.99
477.44	16056.73
477.65	16254.40
477.87	16448.55
478.08	16453.87
478.29	16506.05
478.50	16832.01
478.71	16675.38
478.92	16800.88
479.13	16813.33
479.34	16903.85
479.55	16996.42
479.76	16967.75
479.97	17058.60
480.18	17469.34
480.39	17087.68
480.60	17447.87
480.81	17431.90
481.02	17436.65
481.23	17451.64
481.44	17705.92
481.65	17816.18
481.86	17952.41
482.07	17559.28
482.28	18228.15
482.49	17913.83
482.71	17972.65
482.92	18095.03
483.13	18244.04
483.34	18102.41
483.55	18176.71
483.76	18171.87
483.97	18375.28
484.18	18234.54
484.39	18433.77
484.60	18258.46
484.81	18628.24
485.02	18464.49
485.23	18712.54
485.44	18724.41
485.65	18836.07
485.86	18649.29
486.07	18870.39
486.28	18744.57
486.49	18987.54
486.70	19032.67
486.91	19224.12
487.12	19016.70
487.33	19015.64
487.54	19292.93
487.75	19270.48
487.96	19312.67
488.17	19253.77
488.38	19381.24
488.59	19413.51
488.80	19494.70
489.01	19465.29
489.22	19766.34
489.43	19732.42
489.64	19532.30
489.85	19955.98
490.06	19611.02
490.26	19962.94
490.47	19772.73
490.68	20106.79
490.89	20206.65
491.10	20040.85
491.31	20286.77
491.52	20464.61
491.73	20389.74
491.94	20314.54
492.15	20493.29
492.36	20611.74
492.57	20654.50
492.78	20699.39
492.99	20858.15
493.20	21007.16
493.41	21007.98
493.62	21027.72
493.83	21062.38
494.04	21191.23
494.25	21362.28
494.46	21396.93
494.67	21388.82
494.88	21591.24
495.08	21629.25
495.29	21764.83
495.50	21999.03
495.71	21912.20
495.92	22197.28
496.13	22229.88
496.34	22179.26
496.55	22351.78
496.76	22723.44
496.97	22400.19
497.18	22809.46
497.39	22804.21
497.60	23187.27
497.81	22928.32
498.02	23274.18
498.22	23106.66
498.43	23605.71
498.64	23728.18
498.85	23711.71
499.06	23821.48
499.27	24235.99
499.48	23833.69
499.69	24266.96
499.90	24398.52
500.11	24669.67
500.32	24966.38
500.52	24843.25
500.73	25405.13
500.94	25439.21
501.15	25516.54
501.36	25663.42
501.57	25563.32
501.78	25958.00
501.99	26301.33
502.20	26308.04
502.41	26481.46
502.61	26515.71
502.82	26931.44
503.03	26881.39
503.24	27392.81
503.45	27262.40
503.66	27731.30
503.87	27774.63
504.08	28189.14
504.28	28052.91
504.49	28365.51
504.70	28561.87
504.91	28856.86
505.12	28791.90
505.33	29387.53
505.54	29471.91
505.75	29688.42
505.95	30041.16
506.16	30033.46
506.37	30097.36
506.58	30668.50
506.79	30445.51
507.00	31014.11
507.21	30940.96
507.41	31124.21
507.62	31484.16
507.83	32033.43
508.04	31785.79
508.25	32464.15
508.46	32313.59
508.67	32979.75
508.87	32755.38
509.08	33367.72
509.29	33348.14
509.50	33730.70
509.71	34004.56
509.92	34254.73
510.12	34223.85
510.33	34526.30
510.54	34589.45
510.75	34980.37
510.96	35269.13
511.17	35654.81
511.37	35783.09
511.58	36045.48
511.79	35996.25
512.00	36089.71
512.21	36712.87
512.42	36736.79
512.62	37080.52
512.83	37398.61
513.04	37318.91
513.25	37856.87
513.46	37277.54
513.66	38390.24
513.87	38213.87
514.08	38653.20
514.29	38404.66
514.50	38660.49
514.71	39163.88
514.91	38985.38
515.12	39055.09
515.33	39581.09
515.54	39428.64
515.75	40069.66
515.95	39861.91
516.16	39981.84
516.37	40613.68
516.58	40652.75
516.78	40378.00
516.99	40760.31
517.20	40834.78
517.41	40850.34
517.62	41194.32
517.82	41078.24
518.03	41672.23
518.24	42111.97
518.45	41414.52
518.66	41908.73
518.86	41592.93
519.07	42199.46
519.28	41512.00
519.49	42323.24
519.69	42362.23
519.90	42427.11
520.11	42500.02
520.32	42304.73
520.52	42693.59
520.73	42343.06
520.94	42799.84
521.15	42782.72
521.36	42303.33
521.56	43115.31
521.77	42389.35
521.98	43063.87
522.19	42451.28
522.39	42761.59
522.60	42489.37
522.81	42617.41
523.02	42346.34
523.22	42754.79
523.43	42802.22
523.64	42500.43
523.84	42618.64
524.05	42941.24
524.26	42811.31
524.47	42507.72
524.67	42592.34
524.88	42644.28
525.09	42953.52
525.30	42508.46
525.50	42406.39
525.71	42403.77
525.92	42394.67
526.13	42456.77
526.33	42169.97
526.54	41908.16
526.75	42159.16
526.95	42446.36
527.16	41565.33
527.37	42045.29
527.58	42199.05
527.78	41949.61
527.99	42077.57
528.20	42071.91
528.40	41593.92
528.61	41396.08
528.82	41807.15
529.03	41524.45
529.23	41308.43
529.44	41562.71
529.65	41451.54
529.85	41386.34
530.06	41225.61
530.27	41037.28
530.47	40586.56
530.68	41461.46
530.89	40471.96
531.09	41047.11
531.30	40840.51
531.51	40421.99
531.72	40873.28
531.92	40746.06
532.13	40875.08
532.34	40515.29
532.54	40367.10
532.75	40433.46
532.96	40220.47
533.16	40370.46
533.37	40375.29
533.58	39942.27
533.78	40350.06
533.99	40243.08
534.20	39732.89
534.40	40016.57
534.61	40011.98
534.82	39982.49
535.02	39969.06
535.23	39904.02
535.44	39949.56
535.64	39770.24
535.85	39847.74
536.06	39760.41
536.26	39699.46
536.47	39687.26
536.68	40036.89
536.88	39374.90
537.09	39954.56
537.29	39340.41
537.50	40011.82
537.71	39453.63
537.91	39622.79
538.12	39690.29
538.33	39420.53
538.53	39491.23
538.74	39577.08
538.95	39523.59
539.15	39277.66
539.36	39541.12
539.56	39714.87
539.77	39258.74
539.98	39296.10
540.18	39553.40
540.39	39372.69
540.60	39583.06
540.80	39857.73
541.01	39703.31
541.21	39647.61
541.42	39849.70
541.63	39624.02
541.83	39857.24
542.04	39923.02
542.25	39763.12
542.45	39944.98
542.66	39913.03
542.86	40087.27
543.07	39222.70
543.28	40236.03
543.48	39998.47
543.69	40182.21
543.89	40025.91
544.10	40505.14
544.31	40410.93
544.51	40231.20
544.72	40403.39
544.92	40284.28
545.13	40677.33
545.33	40588.86
545.54	40458.69
545.75	40744.09
545.95	40541.26
546.16	40738.03
546.36	41309.25
546.57	40540.20
546.78	39962.42
546.98	40598.52
547.19	40040.08
547.39	40989.77
547.60	41149.18
547.80	41754.89
548.01	41858.84
548.22	41539.61
548.42	41724.25
548.63	42091.74
548.83	41914.55
549.04	42243.21
549.24	41942.56
549.45	42238.62
549.65	42586.94
549.86	42097.88
550.07	42408.44
550.27	42825.40
550.48	42928.13
550.68	42905.27
550.89	43039.87
551.09	43308.40
551.30	43340.10
551.50	43650.24
551.71	43631.32
551.91	43699.31
552.12	43933.19
552.33	44296.01
552.53	43963.09
552.74	44720.92
552.94	44837.24
553.15	44688.07
553.35	45070.14
553.56	44710.68
553.76	45443.03
553.97	45168.20
554.17	45529.13
554.38	46294.74
554.58	45770.38
554.79	46510.76
554.99	46092.98
555.20	46335.62
555.40	46799.85
555.61	46658.79
555.81	46592.93
556.02	47555.55
556.22	47298.90
556.43	47352.72
556.63	47621.34
556.84	47629.36
557.04	48394.48
557.25	47888.23
557.45	48503.52
557.66	48561.93
557.86	48608.87
558.07	49257.01
558.27	49025.26
558.48	49306.49
558.68	49460.49
558.89	49720.99
559.09	50001.81
559.30	49876.15
559.50	50360.78
559.71	50039.58
559.91	51008.59
560.12	50795.11
560.32	51009.41
560.53	51431.95
560.73	51253.78
560.94	52037.66
561.14	51721.45
561.35	52443.24
561.55	52261.30
561.76	52519.75
561.96	52115.15
562.17	52817.28
562.37	53190.91
562.57	53070.57
562.78	53225.07
562.98	53734.44
563.19	53863.05
563.39	54150.51
563.60	54336.38
563.80	53903.36
564.01	54834.61
564.21	54734.09
564.42	54773.83
564.62	55166.71
564.82	55692.05
565.03	55277.30
565.23	55478.24
565.44	55846.14
565.64	55758.16
565.85	56283.10
566.05	56121.22
566.25	56518.94
566.46	56330.36
566.66	56791.57
566.87	56919.69
567.07	57084.34
567.28	57226.64
567.48	57759.52
567.68	57086.56
567.89	58352.45
568.09	57808.92
568.30	57892.64
568.50	58445.01
568.71	58321.97
568.91	58604.35
569.11	58199.01
569.32	58411.51
569.52	58697.41
569.73	58183.37
569.93	59113.47
570.13	58972.33
570.34	58924.89
570.54	59458.43
570.75	59388.72
570.95	59302.21
571.15	59156.89
571.36	59794.63
571.56	59175.81
571.77	59374.96
571.97	59012.79
572.17	59950.68
572.38	59808.31
572.58	60168.42
572.79	59928.48
572.99	60026.62
573.19	59911.69
573.40	59941.26
573.60	60130.25
573.81	60040.79
574.01	60363.31
574.21	60281.63
574.42	60299.98
574.62	60099.53
574.82	60652.97
575.03	60334.39
575.23	60978.27
575.43	60524.69
575.64	60409.43
575.84	60835.24
576.05	60258.86
576.25	60415.41
576.45	60185.54
576.66	60862.11
576.86	60219.62
577.06	60502.81
577.27	60334.22
577.47	60480.53
577.67	60282.37
577.88	59776.93
578.08	60440.88
578.28	60518.46
578.49	60182.76
578.69	60335.13
578.89	59889.98
579.10	60004.50
579.30	60658.13
579.50	60035.96
579.71	59528.47
579.91	60004.67
580.11	59595.07
580.32	59419.60
580.52	59399.70
580.72	59929.22
580.93	59120.68
581.13	59137.96
581.33	59706.81
581.54	59163.77
581.74	59158.12
581.94	59179.01
582.15	59471.13
582.35	58830.20
582.55	58888.28
582.76	58310.26
582.96	58871.89
583.16	58208.27
583.37	58326.64
583.57	57922.95
583.77	58399.30
583.97	57271.04
584.18	58394.06
584.38	57948.75
584.58	57487.14
584.79	57881.41
584.99	57623.21
585.19	57309.29
585.40	57008.16
585.60	57310.77
585.80	56755.69
586.00	56988.91
586.21	56852.10
586.41	56784.52
586.61	56825.23
586.82	56537.95
587.02	56257.13
587.22	56532.87
587.42	55682.55
587.63	56272.04
587.83	55340.38
588.03	55736.53
588.23	55230.60
588.44	55485.70
588.64	55053.91
588.84	55267.14
589.05	55464.40
589.25	55189.64
589.45	54989.93
589.65	54709.85
589.86	54859.35
590.06	54737.78
590.26	54271.99
590.46	54558.46
590.67	53762.05
590.87	54284.44
591.07	54341.95
591.27	53649.49
591.48	54017.55
591.68	53263.82
591.88	54116.51
592.08	53184.60
592.29	53525.79
592.49	53236.46
592.69	53406.85
592.89	52958.67
593.10	52986.77
593.30	52693.91
593.50	53132.99
593.70	51885.12
593.90	52558.74
594.11	52325.68
594.31	52222.38
594.51	52233.20
594.71	52244.58
594.92	52179.70
595.12	51922.32
595.32	51897.49
595.52	52012.75
595.72	51173.33
595.93	51887.34
596.13	51381.00
596.33	51105.26
596.53	51474.96
596.73	51334.06
596.94	51059.55
597.14	51332.34
597.34	50859.17
597.54	51173.82
597.74	50492.51
597.95	50654.79
598.15	50545.83
598.35	50690.34
598.55	50673.71
598.75	50410.75
598.96	50972.47
599.16	50432.62
599.36	50385.19
599.56	50188.42
599.76	50082.91
599.97	50425.58
600.17	50129.28
600.37	50202.60
600.57	49411.92
600.77	50202.19
600.97	49621.79
601.18	50260.18
601.38	49631.95
601.58	49973.30
601.78	49592.22
601.98	49441.82
602.18	49834.78
602.39	50135.50
602.59	49735.66
602.79	49622.69
602.99	49568.63
603.19	49661.36
603.39	49352.77
603.60	49424.94
603.80	49484.33
604.00	49208.02
604.20	49274.21
604.40	49457.38
604.60	49046.23
604.80	49083.50
605.01	49341.63
605.21	49040.50
605.41	49027.88
605.61	48649.33
605.81	49035.17
606.01	49277.81
606.21	48765.58
606.42	49275.03
606.62	49019.77
606.82	49556.09
607.02	48956.20
607.22	49238.66
607.42	49373.09
607.62	48851.35
607.82	49011.25
608.03	49039.35
608.23	48804.32
608.43	48645.07
608.63	49245.62
608.83	49191.64
609.03	49163.13
609.23	49272.98
609.43	49362.03
609.63	49251.03
609.84	48971.60
610.04	49631.38
610.24	49580.75
610.44	49513.58
610.64	49138.55
610.84	49455.82
611.04	49912.28
611.24	49490.23
611.44	48844.38
611.64	49533.97
611.85	49534.30
612.05	49411.42
612.25	49642.60
612.45	49376.20
612.65	49782.68
612.85	49896.38
613.05	49651.28
613.25	50070.71
613.45	49859.19
613.65	49965.03
613.85	49436.82
614.05	50047.03
614.25	50231.68
614.46	50154.59
614.66	50014.10
614.86	49986.99
615.06	50197.68
615.26	50603.42
615.46	49870.58
615.66	50583.11
615.86	50631.03
616.06	50250.44
616.26	50341.53
616.46	50971.48
616.66	50577.95
616.86	51169.73
617.06	50881.05
617.26	51288.84
617.46	51138.60
617.66	50936.59
617.86	50804.53
618.07	51112.38
618.27	51081.75
618.47	51318.57
618.67	51386.40
618.87	51645.84
619.07	51410.73
619.27	51364.94
619.47	51498.06
619.67	52002.84
619.87	51780.76
620.07	52160.04
620.27	52152.67
620.47	51799.27
620.67	52254.09
620.87	52361.48
621.07	52730.28
621.27	52603.14
621.47	52298.57
621.67	52619.69
621.87	52488.78
622.07	53010.61
622.27	52909.03
622.47	52857.42
622.67	52986.19
622.87	52819.00
623.07	53425.20
623.27	53983.31
623.47	53115.87
623.67	53648.43
623.87	54070.80
624.07	53848.14
624.27	53652.69
624.47	54143.13
624.67	53979.62
624.87	54220.87
625.07	53910.89
625.27	54602.04
625.47	54230.79
625.67	54388.73
625.87	54758.42
626.07	54800.53
626.27	55139.67
626.47	55116.90
626.67	55028.26
626.87	54764.32
627.07	55342.83
627.27	55309.33
627.47	55588.67
627.67	55532.23
627.87	55656.25
628.07	56225.34
628.27	56196.75
628.47	55948.13
628.67	56598.16
628.86	56632.32
629.06	56392.79
629.26	56351.58
629.46	57040.93
629.66	56850.47
629.86	56515.34
630.06	57102.86
630.26	57097.12
630.46	57458.22
630.66	57021.59
630.86	57273.33
631.06	57290.37
631.26	57200.59
631.46	57810.72
631.66	57874.70
631.86	57558.98
632.06	58187.05
632.26	57966.61
632.45	58228.34
632.65	58490.48
632.85	58677.17
633.05	58544.30
633.25	58612.62
633.45	58331.39
633.65	58698.06
633.85	59219.06
634.05	58288.39
634.25	58842.81
634.45	58863.54
634.65	59429.02
634.84	59052.77
635.04	59356.03
635.24	59035.48
635.44	59629.72
635.64	59320.73
635.84	59834.11
636.04	59699.68
636.24	59717.38
636.44	59900.96
636.64	59274.61
636.84	60391.90
637.03	59682.89
637.23	60144.58
637.43	60362.57
637.63	60129.10
637.83	60572.28
638.03	60610.45
638.23	60140.73
638.43	60698.44
638.62	60996.95
638.82	59903.09
639.02	60898.89
639.22	60588.17
639.42	60944.60
639.62	60594.32
639.82	60753.81
640.02	60915.85
640.21	61133.10
640.41	60669.03
640.61	61299.64
640.81	61235.41
641.01	61248.77
641.21	61188.06
641.41	62001.03
641.61	61304.22
641.80	61491.65
642.00	61793.69
642.20	61837.43
642.40	61170.86
642.60	61613.55
642.80	61852.59
642.99	61428.41
643.19	62012.41
643.39	61419.81
643.59	61934.51
643.79	61652.22
643.99	61848.16
644.19	61653.20
644.38	61196.99
644.58	61556.94
644.78	61482.23
644.98	61432.92
645.18	61717.50
645.38	62013.23
645.57	61506.56
645.77	61817.53
645.97	61728.15
646.17	62117.19
646.37	61946.88
646.56	61771.24
646.76	61832.76
646.96	61812.53
647.16	61599.87
647.36	61872.09
647.55	61662.29
647.75	61811.06
647.95	61384.67
648.15	61638.53
648.35	61510.74
648.55	61670.40
648.74	61373.77
648.94	61278.75
649.14	61710.95
649.34	61104.18
649.54	61214.93
649.73	61269.65
649.93	60952.38
650.13	61220.09
650.33	60954.60
650.52	61325.69
650.72	61609.37
650.92	61081.90
651.12	60882.34
651.32	61153.49
651.51	61219.36
651.71	61150.71
651.91	60905.12
652.11	60528.13
652.30	60376.08
652.50	60752.91
652.70	60669.52
652.90	60285.32
653.10	60449.16
653.29	60181.28
653.49	60502.32
653.69	59948.88
653.89	59937.08
654.08	59671.34
654.28	60148.76
654.48	59613.01
654.68	59884.90
654.87	59553.54
655.07	59381.76
655.27	59754.65
655.47	59301.80
655.66	59301.07
655.86	59065.88
656.06	59544.45
656.26	58543.23
656.45	58820.94
656.65	58712.48
656.85	58514.89
657.04	58018.79
657.24	58065.65
657.44	57852.99
657.64	58300.43
657.83	57215.58
658.03	57932.04
658.23	57849.79
658.43	57678.34
658.62	57626.56
658.82	57286.60
659.02	57198.05
659.21	57208.45
659.41	56874.63
659.61	57305.93
659.81	56837.60
660.00	56616.10
660.20	56816.06
660.40	56432.84
660.59	56356.41
660.79	55668.21
660.99	55975.08
661.19	55767.34
661.38	55679.03
661.58	54887.86
661.78	55242.56
661.97	55034.65
662.17	55644.21
662.37	55033.92
662.56	54989.19
662.76	54957.41
662.96	54910.06
663.15	55020.65
663.35	54766.70
663.55	54414.69
663.74	54183.44
663.94	54520.61
664.14	53778.76
664.33	54039.34
664.53	53570.60
664.73	53918.84
664.93	53059.27
665.12	53379.08
665.32	53084.33
665.52	53072.78
665.71	52878.55
665.91	52861.84
666.10	52515.16
666.30	52713.73
666.50	52263.10
666.69	52054.86
666.89	52362.06
667.09	52497.14
667.28	51846.05
667.48	51594.89
667.68	51685.98
667.87	51591.36
668.07	51184.47
668.27	51550.32
668.46	51456.53
668.66	51068.07
668.86	51410.00
669.05	50693.94
669.25	50839.92
669.44	50510.61
669.64	50435.98
669.84	50327.19
670.03	50625.30
670.23	50170.65
670.43	50057.68
670.62	49937.67
670.82	49677.58
671.01	49755.24
671.21	49276.83
671.41	49270.61
671.60	49410.03
671.80	49624.66
672.00	49187.13
672.19	49341.55
672.39	49193.68
672.58	48936.62
672.78	48662.52
672.98	49018.79
673.17	48568.23
673.37	47768.71
673.56	47993.82
673.76	48100.48
673.96	48271.52
674.15	47867.17
674.35	47880.36
674.54	47674.99
674.74	47553.83
674.94	47468.31
675.13	47679.42
675.33	47026.28
675.52	47528.19
675.72	47301.36
675.91	47022.84
676.11	47249.26
676.31	46588.75
676.50	46712.53
676.70	46553.03
676.89	46597.51
677.09	46648.06
677.28	46452.60
677.48	45758.91
677.68	45989.10
677.87	45793.73
678.07	45672.00
678.26	45731.80
678.46	45696.90
678.65	45485.96
678.85	45770.30
679.04	45207.60
679.24	45522.41
679.44	45308.11
679.63	45449.51
679.83	45125.35
680.02	45087.67
680.22	44661.45
680.41	44753.28
680.61	44371.21
680.80	44235.14
681.00	44360.89
681.19	44281.75
681.39	44103.99
681.59	44041.81
681.78	43926.23
681.98	44098.50
682.17	43587.57
682.37	43868.06
682.56	43465.84
682.76	43784.75
682.95	43561.52
683.15	43558.49
683.34	43370.33
683.54	43480.26
683.73	43485.75
683.93	43064.93
684.12	43449.62
684.32	43428.49
684.51	42848.91
684.71	43084.02
684.90	43013.57
685.10	42805.17
685.29	42556.95
685.49	42762.73
685.68	42805.09
685.88	42678.44
686.07	42355.60
686.27	42679.26
686.46	42454.31
686.66	42297.11
686.85	42486.91
687.05	42207.73
687.24	42054.30
687.44	42298.17
687.63	42126.47
687.83	41610.96
688.02	42037.75
688.22	42252.54
688.41	41962.88
688.61	41895.13
688.80	42016.37
689.00	41718.35
689.19	41480.30
689.39	41969.11
689.58	41839.02
689.77	41659.78
689.97	41787.16
690.16	41468.50
690.36	40961.83
690.55	40944.63
690.75	41505.94
690.94	40954.46
691.14	41179.41
691.33	40712.31
691.53	41081.27
691.72	40826.67
691.91	40897.94
692.11	40800.62
692.30	40939.96
692.50	41086.92
692.69	40612.20
692.89	40776.61
693.08	40633.42
693.28	40609.17
693.47	40656.93
693.66	40532.17
693.86	40536.26
694.05	40424.20
694.25	40515.46
694.44	40619.49
694.64	40524.06
694.83	40454.02
695.02	40455.33
695.22	40570.26
695.41	40200.32
695.61	40086.28
695.80	40108.89
695.99	40107.91
696.19	40147.72
696.38	40224.56
696.58	39838.81
696.77	40422.73
696.96	40216.70
697.16	40079.40
697.35	40031.89
697.55	39966.11
697.74	39704.30
697.93	40151.00
698.13	39758.12
698.32	40061.96
698.52	39907.54
698.71	39451.74
698.90	40132.73
699.10	39715.68
699.29	39792.03
699.49	40072.19
699.68	39724.61
699.87	39734.61
700.07	39921.46
700.26	39739.77
700.45	39697.50
700.65	39446.17
700.84	39847.16
701.04	39513.26
701.23	39817.76
701.42	39693.81
701.62	39600.42
701.81	39811.78
702.00	39652.85
702.20	39390.79
702.39	39591.41
702.58	39749.11
702.78	39486.15
702.97	39434.05
703.17	39327.88
703.36	39532.02
703.55	39392.76
703.75	39358.11
703.94	39513.26
704.13	39378.92
704.33	39343.61
704.52	39747.55
704.71	39562.74
704.91	39525.63
705.10	39294.87
705.29	39369.25
705.49	39519.90
705.68	39555.45
705.87	39455.51
706.07	39176.74
706.26	39693.73
706.45	39129.88
706.65	39025.60
706.84	39498.19
707.03	39708.80
707.23	39123.82
707.42	39020.19
707.61	39528.58
707.80	39201.07
708.00	39374.00
708.19	39273.41
708.38	39596.98
708.58	38969.65
708.77	39560.86
708.96	38965.14
709.16	38864.71
709.35	39682.26
709.54	39213.52
709.74	39178.79
709.93	38975.71
710.12	39663.99
710.31	39799.16
710.51	39308.06
710.70	39393.01
710.89	39473.94
711.09	38982.92
711.28	39114.81
711.47	39400.38
711.66	39333.53
711.86	39229.09
712.05	39369.41
712.24	39544.88
712.43	39166.42
712.63	38937.37
712.82	39435.85
713.01	39244.24
713.21	39104.98
713.40	39294.05
713.59	39583.96
713.78	39176.00
713.98	39600.83
714.17	39497.37
714.36	39503.43
714.55	39223.43
714.75	39528.50
714.94	39356.88
715.13	39709.29
715.32	39186.90
715.52	39377.69
715.71	39183.21
715.90	39318.21
716.09	39242.93
716.29	39532.19
716.48	39364.58
716.67	38878.56
716.86	39386.70
717.06	39409.39
717.25	39645.23
717.44	39784.82
717.63	39779.34
717.82	39388.42
718.02	39524.24
718.21	39777.86
718.40	39770.82
718.59	39544.72
718.79	39409.55
718.98	39443.22
719.17	39817.67
719.36	39877.15
719.55	39681.11
719.75	39651.95
719.94	39531.70
720.13	39730.35
720.32	39526.70
720.51	39306.91
720.71	39312.97
720.90	38958.92
721.09	39441.26
721.28	39262.76
721.47	39740.01
721.67	39645.40
721.86	39743.86
722.05	39808.01
722.24	39456.74
722.43	39818.74
722.63	39478.45
722.82	39598.05
723.01	39527.11
723.20	39315.51
723.39	39320.02
723.58	39624.75
723.78	39082.78
723.97	39671.69
724.16	39268.16
724.35	39437.08
724.54	39273.73
724.73	39760.58
724.93	39540.95
725.12	39942.03
725.31	39332.96
725.50	39698.24
725.69	39971.35
725.88	39749.44
726.08	39311.25
726.27	39880.01
726.46	39329.11
726.65	40117.41
726.84	39477.06
727.03	39595.02
727.23	39888.37
727.42	39490.16
727.61	39529.24
727.80	39373.43
727.99	39548.32
728.18	39763.44
728.37	39549.14
728.56	39475.25
728.76	39429.13
728.95	39702.82
729.14	39612.47
729.33	39450.43
729.52	39453.22
729.71	39436.34
729.90	39430.93
730.09	39168.30
730.29	39524.16
730.48	39050.09
730.67	39584.70
730.86	39294.05
731.05	39671.86
731.24	39403.08
731.43	39581.17
731.62	39350.82
731.81	39228.51
732.01	39762.87
732.20	39304.94
732.39	39605.50
732.58	39539.48
732.77	38926.15
732.96	39505.24
733.15	39631.96
733.34	39352.54
733.53	39484.51
733.72	39546.85
733.92	39516.46
734.11	39470.58
734.30	39527.76
734.49	39863.14
734.68	39625.98
734.87	39529.32
735.06	39487.54
735.25	39560.04
735.44	39346.31
735.63	39496.88
735.82	39506.38
736.01	39333.86
736.20	39425.86
736.40	39644.91
736.59	39488.11
736.78	39644.82
736.97	39164.86
737.16	39329.36
737.35	39398.90
737.54	39323.87
737.73	39093.51
737.92	39318.79
738.11	39457.56
738.30	39239.08
738.49	39191.49
738.68	39221.22
738.87	39295.52
739.06	39136.60
739.25	39220.81
739.44	39170.35
739.63	39021.83
739.82	38735.28
740.01	39077.46
740.20	38643.37
740.39	38704.40
740.59	38650.50
740.78	38686.54
740.97	38449.96
741.16	38378.12
741.35	38639.76
741.54	38587.99
741.73	38644.76
741.92	38534.99
742.11	38638.62
742.30	38697.11
742.49	38378.69
742.68	38659.10
742.87	38560.88
743.06	38191.91
743.25	38439.06
743.44	38125.56
743.63	38443.16
743.82	38026.77
744.01	38064.28
744.20	37851.21
744.39	38139.24
744.58	38055.27
744.77	37853.02
744.96	37524.93
745.15	37902.33
745.34	37626.67
745.53	37759.38
745.72	37414.18
745.91	37477.91
746.10	37208.23
746.29	37578.42
746.48	37466.44
746.67	37357.74
746.86	37422.12
747.04	37267.71
747.23	37084.78
747.42	37383.46
747.61	36984.19
747.80	37439.57
747.99	36765.38
748.18	37261.23
748.37	36961.90
748.56	36575.17
748.75	36775.95
748.94	36819.69
749.13	36802.24
749.32	36570.58
749.51	36762.60
749.70	36692.88
749.89	36484.24
750.08	36505.45
750.27	36116.83
750.46	36274.36
750.65	36678.30
750.84	36203.09
751.02	36320.48
751.21	36149.76
751.40	36204.48
751.59	36192.69
751.78	35964.71
751.97	35912.77
752.16	35607.05
752.35	35893.85
752.54	35435.84
752.73	35833.88
752.92	35428.71
753.11	35390.70
753.30	35472.13
753.49	35499.74
753.67	35283.80
753.86	34970.70
754.05	35219.82
754.24	34883.38
754.43	34927.53
754.62	34977.67
754.81	34657.53
755.00	34791.14
755.19	34609.77
755.38	34225.00
755.56	34495.25
755.75	34715.20
755.94	34352.87
756.13	34300.28
756.32	34390.39
756.51	34200.83
756.70	34322.81
756.89	34304.21
757.08	34079.67
757.26	34048.46
757.45	34081.97
757.64	33728.00
757.83	34064.85
758.02	33674.26
758.21	33690.81
758.40	33799.68
758.59	33783.37
758.77	33534.75
758.96	33498.46
759.15	33511.57
759.34	33102.63
759.53	33226.90
759.72	33057.66
759.91	32737.60
760.09	32909.47
760.28	32933.63
760.47	32598.17
760.66	32806.66
760.85	32390.76
761.04	32729.00
761.23	32580.15
761.41	32382.07
761.60	32433.68
761.79	32194.15
761.98	31978.95
762.17	32268.37
762.36	31932.42
762.54	32258.87
762.73	32054.64
762.92	31733.11
763.11	32091.42
763.30	32098.72
763.49	31840.10
763.67	31707.06
763.86	31610.73
764.05	31680.93
764.24	31553.87
764.43	31724.51
764.61	31176.31
764.80	31154.27
764.99	31335.97
765.18	30914.25
765.37	31070.55
765.55	31001.82
765.74	30769.09
765.93	30547.99
766.12	30804.32
766.31	30768.35
766.49	30764.18
766.68	30859.20
766.87	30716.17
767.06	30497.94
767.25	30479.18
767.43	30386.61
767.62	30275.53
767.81	30366.79
768.00	30013.80
768.19	29816.21
768.37	29935.24
768.56	29939.09
768.75	29964.57
768.94	29997.99
769.12	29709.06
769.31	29674.66
769.50	29611.17
769.69	29565.87
769.88	29095.57
770.06	29621.74
770.25	29157.26
770.44	29117.28
770.63	29375.33
770.81	29184.87
771.00	28968.35
771.19	28951.23
771.38	28846.30
771.56	28893.48
771.75	28297.28
771.94	28653.70
772.13	28600.87
772.31	28382.80
772.50	28697.12
772.69	28451.69
772.88	28686.88
773.06	28253.45
773.25	28300.14
773.44	28289.74
773.62	28216.09
773.81	28189.39
774.00	28009.41
774.19	28092.32
774.37	27850.25
774.56	28054.80
774.75	27658.23
774.94	27911.77
775.12	27691.65
775.31	27729.58
775.50	27748.09
775.68	27459.98
775.87	27475.63
776.06	27264.61
776.25	27460.64
776.43	27174.42
776.62	27397.23
776.81	27053.42
776.99	27177.20
777.18	27178.35
777.37	26813.15
777.55	26875.58
777.74	26837.07
777.93	26704.37
778.12	26714.52
778.30	26508.83
778.49	26479.09
778.68	26570.02
778.86	26432.15
779.05	26502.76
779.24	26490.48
779.42	26230.47
779.61	26166.16
779.80	26241.52
779.98	26378.33
780.17	26439.60
780.36	26210.56
780.54	26318.94
780.73	25781.06
780.92	26075.48
781.10	25857.16
781.29	25705.78
781.48	25540.55
781.66	25607.97
781.85	25637.95
782.04	25386.13
782.22	25463.30
782.41	25328.21
782.60	25436.26
782.78	25360.41
782.97	25335.67
783.16	25008.73
783.34	24987.27
783.53	25084.18
783.71	24887.00
783.90	24879.13
784.09	24903.87
784.27	24808.44
784.46	24782.06
784.65	24857.67
784.83	24688.59
785.02	24592.75
785.20	24867.67
785.39	24411.54
785.58	24778.29
785.76	24680.97
785.95	24585.46
786.14	24658.77
786.32	24595.61
786.51	24494.12
786.69	24587.59
786.88	24464.87
787.07	24419.08
787.25	24429.07
787.44	24412.20
787.62	24342.98
787.81	24396.39
788.00	24323.48
788.18	24099.60
788.37	24105.98
788.55	24460.20
788.74	24123.60
788.93	24279.32
789.11	24465.44
789.30	24393.11
789.48	24132.12
789.67	24261.47
789.86	24220.02
790.04	24328.64
790.23	24165.29
790.41	24020.22
790.60	24223.46
790.78	24207.73
790.97	24021.20
791.16	24181.10
791.34	24362.39
791.53	23900.37
791.71	24164.97
791.90	23922.32
792.08	23969.84
792.27	23899.22
792.46	23770.28
792.64	23876.12
792.83	23650.03
793.01	23783.31
793.20	23678.78
793.38	23649.45
793.57	23694.10
793.75	23598.99
793.94	23684.10
794.12	23874.81
794.31	23659.61
794.50	23836.47
794.68	23865.06
794.87	23688.28
795.05	23901.93
795.24	23624.96
795.42	23559.01
795.61	23883.98
795.79	23808.13
795.98	23576.38
796.16	23733.66
796.35	23778.88
796.53	23503.47
796.72	23814.27
796.90	23745.30
797.09	23737.68
797.27	23713.10
797.46	23674.11
797.64	23746.36
797.83	23610.46
798.01	23591.86
798.20	23606.36
798.38	23431.71
798.57	23673.37
798.75	23548.61
798.94	23153.52
799.12	23779.62
799.31	23439.17
799.49	23386.49
799.68	23264.19
799.86	23294.25
800.05	23239.53
800.23	23286.96
800.42	23111.33
800.60	23435.32
800.79	23138.93
800.97	23281.96
801.16	23452.93
801.34	23191.28
801.53	23169.65
801.71	23317.35
801.90	23142.78
802.08	23430.56
802.27	23160.97
802.45	22989.51
802.64	23143.44
802.82	23151.30
803.00	22889.41
803.19	22988.94
803.37	23174.49
803.56	22994.92
803.74	23021.95
803.93	23005.49
804.11	22942.66
804.30	22809.62
804.48	22995.66
804.67	22998.85
804.85	22929.63
805.03	23054.31
805.22	22872.45
805.40	22771.04
805.59	22906.04
805.77	22889.98
805.96	22767.02
806.14	22795.28
806.32	22858.03
806.51	22955.52
806.69	22675.68
806.88	22552.56
807.06	22483.26
807.25	22421.33
807.43	22459.42
807.61	22481.45
807.80	22400.44
807.98	22583.93
808.17	22409.20
808.35	22374.63
808.53	22640.38
808.72	22476.87
808.90	22514.47
809.09	22539.12
809.27	22559.19
809.45	22350.38
809.64	22517.50
809.82	22263.06
810.01	22343.09
810.19	22385.61
810.37	22222.75
810.56	22100.12
810.74	22294.84
810.93	22020.33
811.11	22082.92
811.29	21954.31
811.48	22096.52
811.66	22038.44
811.84	22022.95
812.03	22002.56
812.21	22009.11
812.40	22104.87
812.58	22138.46
812.76	21930.47
812.95	22116.18
813.13	21775.97
813.31	21909.25
813.50	21926.95
813.68	21858.54
813.86	21938.09
814.05	22025.08
814.23	21682.42
814.42	21847.40
814.60	21761.39
814.78	21807.92
814.97	21850.43
815.15	21804.64
815.33	21975.28
815.52	21795.96
815.70	21878.78
815.88	21900.98
816.07	21605.50
816.25	21674.72
816.43	21673.08
816.62	21397.59
816.80	21507.44
816.98	21374.24
817.17	21380.22
817.35	21368.92
817.53	21393.57
817.72	21445.67
817.90	21198.93
818.08	21262.50
818.26	21438.79
818.45	21223.43
818.63	21436.42
818.81	21345.08
819.00	21048.45
819.18	21315.91
819.36	21256.36
819.55	21248.82
819.73	21142.16
819.91	21300.76
820.09	21234.73
820.28	21377.11
820.46	21168.13
820.64	21523.17
820.83	21233.34
821.01	21241.53
821.19	21147.98
821.38	21183.62
821.56	21146.01
821.74	21166.74
821.92	20999.63
822.11	21257.59
822.29	20926.96
822.47	21014.54
822.65	21081.54
822.84	21073.43
823.02	20887.15
823.20	21156.09
823.39	20921.80
823.57	21006.92
823.75	21031.90
823.93	20929.91
824.12	20998.40
824.30	20918.61
824.48	20912.46
824.66	21091.87
824.85	20666.71
825.03	20981.19
825.21	20998.40
825.39	20920.00
825.58	20983.65
825.76	20850.53
825.94	20868.64
826.12	20848.65
826.31	20708.98
826.49	20851.27
826.67	20902.31
826.85	20813.26
827.03	20878.71
827.22	20926.47
827.40	20796.79
827.58	20792.62
827.76	20844.55
827.95	20747.64
828.13	20733.80
828.31	20790.08
828.49	20798.76
828.67	20757.97
828.86	20719.79
829.04	20776.81
829.22	20703.57
829.40	20676.78
829.58	20706.44
829.77	20689.48
829.95	20685.39
830.13	20616.98
830.31	20563.08
830.49	20560.79
830.68	20654.09
830.86	20514.99
831.04	20516.31
831.22	20528.43
831.40	20480.59
831.59	20600.85
831.77	20414.81
831.95	20615.02
832.13	20395.15
832.31	20549.73
832.50	20545.55
832.68	20465.19
832.86	20462.98
833.04	20634.84
833.22	20388.43
833.40	20674.90
833.59	20357.71
833.77	20534.90
833.95	20103.76
834.13	20751.49
834.31	20469.28
834.49	20484.03
834.67	20486.49
834.86	20507.29
835.04	20399.00
835.22	20384.50
835.40	20383.51
835.58	20330.60
835.76	20408.34
835.95	20337.39
836.13	20304.63
836.31	20241.71
836.49	20450.36
836.67	20411.29
836.85	20388.18
837.03	20342.56
837.21	20350.01
837.40	20208.78
837.58	20072.31
837.76	20273.09
837.94	20186.58
838.12	20385.89
838.30	20187.32
838.48	20206.90
838.66	20119.16
838.85	20111.54
839.03	20155.13
839.21	20085.41
839.39	20087.71
839.57	20178.14
839.75	20074.44
839.93	20138.17
840.11	20197.97
840.29	20092.70
840.47	20172.74
840.66	20162.01
840.84	20095.98
841.02	20011.60
841.20	20019.30
841.38	20013.90
841.56	19946.15
841.74	20190.10
841.92	19913.06
842.10	19948.85
842.28	20032.00
842.46	19906.42
842.65	19934.60
842.83	20068.05
843.01	20146.61
843.19	19960.32
843.37	20103.43
843.55	19988.91
843.73	20108.10
843.91	20185.27
844.09	20089.92
844.27	20241.55
844.45	20001.28
844.63	20067.39
844.81	20044.21
844.99	20142.92
845.17	20039.95
845.35	20169.87
845.54	20069.68
845.72	20087.87
845.90	20003.00
846.08	20056.41
846.26	19826.47
846.44	19986.13
846.62	19715.06
846.80	19738.98
846.98	19738.16
847.16	19701.79
847.34	19809.43
847.52	19800.83
847.70	19758.47
847.88	19926.33
848.06	19825.57
848.24	19946.31
848.42	19991.94
848.60	19805.41
848.78	19979.41
848.96	19896.34
849.14	19880.78
849.32	20022.74
849.50	19860.22
849.68	19989.40
849.86	19894.05
850.04	19819.75
850.22	19763.80
850.40	19570.88
850.58	19825.07
850.76	20045.85
850.94	19461.03
851.12	19802.55
851.30	19697.85
851.48	19874.55
851.66	19698.67
851.84	19650.59
852.02	19692.12
852.20	19812.79
852.38	19589.48
852.56	19734.88
852.74	19692.45
852.92	19614.54
853.10	19566.46
853.28	19730.21
853.46	19349.45
853.64	19639.69
853.82	19468.40
854.00	19557.12
854.18	19458.82
854.36	19366.00
854.54	19526.73
854.72	19325.04
854.90	19338.97
855.07	19515.59
855.25	19438.83
855.43	19489.45
855.61	19399.02
855.79	19340.77
855.97	19481.84
856.15	19478.07
856.33	19420.15
856.51	19574.98
856.69	19394.02
856.87	19577.76
857.05	19455.70
857.23	19432.52
857.41	19264.50
857.59	19312.84
857.77	19268.44
857.94	19229.69
858.12	19291.21
858.30	19172.43
858.48	19171.85
858.66	19159.24
858.84	19294.81
859.02	19113.77
859.20	19020.14
859.38	19308.99
859.56	19234.77
859.74	19136.47
859.92	19249.51
860.09	19162.52
860.27	19295.39
860.45	19183.98
860.63	19226.33
860.81	19386.73
860.99	19184.88
861.17	19022.68
861.35	18782.17
861.53	18636.35
861.70	18598.10
861.88	18963.78
862.06	18984.51
862.24	18736.46
862.42	18684.68
862.60	18984.10
862.78	18995.16
862.96	19079.78
863.14	18905.37
863.31	18929.87
863.49	18841.23
863.67	18809.36
863.85	18765.13
864.03	18878.83
864.21	18816.74
864.39	18783.64
864.56	18671.49
864.74	18849.75
864.92	18686.57
865.10	18640.12
865.28	18722.04
865.46	18861.79
865.64	18466.21
865.81	18747.84
865.99	18471.04
866.17	18685.91
866.35	18615.46
866.53	18611.37
866.71	18671.58
866.88	18686.57
867.06	18549.93
867.24	18668.71
867.42	18487.10
867.60	18581.30
867.78	18471.12
867.95	18643.31
868.13	18363.40
868.31	18599.65
868.49	18651.02
868.67	18457.36
868.84	18472.27
869.02	18569.26
869.20	18239.46
869.38	18465.88
869.56	18343.16
869.73	18251.25
869.91	18342.26
870.09	18325.72
870.27	18145.82
870.45	18225.53
870.62	18054.81
870.80	18262.47
870.98	18116.82
871.16	18110.02
871.34	18086.27
871.51	18122.80
871.69	17974.28
871.87	18009.76
872.05	18034.41
872.23	17953.72
872.40	17855.17
872.58	17962.57
872.76	17839.36
872.94	17835.35
873.11	17828.96
873.29	17741.96
873.47	17796.52
873.65	17782.10
873.83	17798.57
874.00	17803.48
874.18	17910.14
874.36	17856.89
874.54	17932.59
874.71	17773.09
874.89	17636.21
875.07	17787.35
875.25	17694.86
875.42	17731.56
875.60	17675.69
875.78	17827.81
875.96	17522.83
876.13	17677.98
876.31	17406.01
876.49	17348.83
876.66	17238.65
876.84	17521.27
877.02	17317.21
877.20	17458.44
877.37	17438.86
877.55	17375.13
877.73	17346.70
877.91	17297.23
878.08	17463.68
878.26	17376.11
878.44	17347.44
878.61	17400.44
878.79	17303.70
878.97	17380.46
879.15	17518.73
879.32	17499.81
879.50	17443.21
879.68	17521.85
879.85	17319.43
880.03	17491.46
880.21	17336.06
880.38	17469.50
880.56	17283.63
880.74	17459.26
880.92	17214.90
881.09	17302.96
881.27	17219.65
881.45	17256.76
881.62	17116.10
881.80	17120.77
881.98	17022.96
882.15	17213.83
882.33	17031.81
882.51	17102.83
882.68	16942.44
882.86	17146.17
883.04	16939.49
883.21	17024.85
883.39	17248.16
883.57	17039.10
883.74	17087.60
883.92	17157.64
884.10	17176.07
884.27	17096.44
884.45	16988.72
884.63	17138.39
884.80	17082.52
884.98	17084.48
885.16	17057.20
885.33	17093.08
885.51	17088.82
885.69	17088.50
885.86	16971.93
886.04	17092.10
886.21	16819.07
886.39	17006.91
886.57	16722.98
886.74	16993.88
886.92	16917.70
887.10	16939.16
887.27	16893.86
887.45	16960.29
887.62	16921.79
887.80	16964.14
887.98	17153.62
888.15	17092.02
888.33	16989.95
888.51	17189.67
888.68	17050.08
888.86	17079.49
889.03	16966.93
889.21	17057.86
889.39	17038.53
889.56	17008.13
889.74	16956.94
889.91	17017.96
890.09	16997.40
890.27	16977.25
890.44	17011.74
890.62	17040.90
890.79	17026.57
890.97	17064.74
891.14	16992.32
891.32	17040.41
891.50	16957.84
891.67	17031.56
891.85	17012.07
892.02	16940.14
892.20	17058.68
892.38	17002.56
892.55	16917.37
892.73	17009.86
892.90	16832.26
893.08	16909.42
893.25	16812.35
893.43	17018.54
893.60	16828.57
893.78	16979.55
893.96	16871.90
894.13	16966.68
894.31	17028.78
894.48	16975.61
894.66	16964.06
894.83	16971.68
895.01	16931.05
895.18	16979.05
895.36	16870.59
895.53	16951.69
895.71	16826.44
895.89	16889.84
896.06	16767.87
896.24	16887.22
896.41	16816.12
896.59	16872.48
896.76	16617.96
896.94	16800.31
897.11	16779.50
897.29	16814.97
897.46	16590.92
897.64	16613.53
897.81	16558.73
897.99	16435.69
898.16	16662.03
898.34	16566.26
898.51	16478.28
898.69	16379.90
898.86	16426.02
899.04	16460.51
899.21	16304.45
899.39	16389.48
899.56	16301.42
899.74	16477.22
899.91	16283.65
900.09	16236.62
900.26	16383.75
900.44	16211.80
900.61	16242.77
900.79	16389.57
900.96	16215.41
901.14	16262.26
901.31	16132.10
901.49	16143.40
901.66	16109.98
901.84	16135.29
902.01	15972.19
902.19	16040.67
902.36	15903.54
902.54	15944.83
902.71	15944.83
902.88	16032.07
903.06	15772.23
903.23	16077.87
903.41	15859.80
903.58	15805.98
903.76	15692.19
903.93	15819.08
904.11	15805.49
904.28	15715.05
904.45	15705.22
904.63	15652.79
904.80	15569.97
904.98	15615.52
905.15	15441.27
905.33	15519.92
905.50	15394.42
905.68	15399.33
905.85	15323.07
906.02	15350.59
906.20	15406.21
906.37	15155.95
906.55	15099.43
906.72	15233.53
906.90	15082.63
907.07	14992.44
907.24	15065.10
907.42	14976.71
907.59	14963.28
907.77	14884.23
907.94	14857.60
908.11	14846.22
908.29	14807.14
908.46	14749.47
908.64	14651.41
908.81	14681.23
908.98	14559.75
909.16	14683.69
909.33	14532.30
909.51	14508.79
909.68	14479.88
909.85	14463.82
910.03	14455.22
910.20	14323.98
910.37	14330.70
910.55	14275.98
910.72	14182.51
910.90	14126.89
911.07	14085.60
911.24	13990.00
911.42	14055.78
911.59	13864.26
911.76	13977.30
911.94	13851.89
912.11	13822.89
912.29	13807.41
912.46	13746.46
912.63	13806.34
912.81	13611.13
912.98	13764.48
913.15	13573.28
913.33	13687.80
913.50	13647.50
913.67	13524.13
913.85	13493.66
914.02	13482.93
914.19	13447.86
914.37	13351.77
914.54	13403.46
914.71	13315.07
914.89	13281.16
915.06	13244.79
915.23	13143.37
915.41	13139.11
915.58	13065.30
915.75	13033.03
915.93	13004.36
916.10	12941.69
916.27	12856.08
916.45	12830.28
916.62	12748.69
916.79	12816.68
916.97	12692.90
917.14	12672.50
917.31	12593.37
917.49	12561.09
917.66	12506.21
917.83	12484.83
918.00	12479.75
918.18	12398.40
918.35	12395.95
918.52	12412.74
918.70	12299.44
918.87	12326.07
919.04	12306.33
919.21	12313.21
919.39	12136.18
919.56	12267.58
919.73	12130.77
919.91	12156.17
920.08	12142.82
920.25	12036.73
920.42	12117.42
920.60	11996.10
920.77	11921.72
920.94	11942.93
921.11	11765.01
921.29	11833.90
921.46	11713.40
921.63	11810.14
921.81	11641.72
921.98	11602.15
922.15	11594.86
922.32	11597.89
922.50	11500.41
922.67	11516.22
922.84	11454.62
923.01	11376.38
923.19	11323.96
923.36	11328.63
923.53	11147.09
923.70	11220.90
923.87	11158.73
924.05	11181.58
924.22	11067.63
924.39	11145.13
924.56	11022.17
924.74	11061.82
924.91	11020.61
925.08	10970.72
925.25	10932.22
925.43	10907.07
925.60	10822.78
925.77	10924.68
925.94	10797.71
926.11	10776.33
926.29	10732.83
926.46	10711.86
926.63	10684.09
926.80	10631.74
926.97	10564.32
927.15	10604.38
927.32	10471.26
927.49	10472.33
927.66	10470.36
927.83	10478.15
928.01	10395.74
928.18	10397.29
928.35	10279.98
928.52	10347.73
928.69	10207.90
928.87	10219.53
929.04	10188.40
929.21	10225.26
929.38	10149.57
929.55	10190.20
929.72	10095.42
929.90	10092.96
930.07	10041.60
930.24	10009.00
930.41	9971.31
930.58	9955.59
930.75	9920.28
930.93	9885.05
931.10	9800.02
931.27	9731.54
931.44	9746.37
931.61	9685.75
931.78	9731.37
931.95	9676.57
932.13	9595.06
932.30	9680.34
932.47	9529.28
932.64	9578.92
932.81	9528.87
932.98	9485.86
933.15	9466.20
933.33	9403.78
933.50	9439.42
933.67	9359.46
933.84	9336.12
934.01	9328.01
934.18	9296.55
934.35	9312.36
934.52	9232.00
934.70	9211.85
934.87	9202.83
935.04	9153.93
935.21	9140.58
935.38	9108.14
935.55	9094.78
935.72	9180.80
935.89	9019.34
936.06	9080.45
936.24	8934.71
936.41	9046.04
936.58	8935.94
936.75	8905.71
936.92	8912.43
937.09	8900.55
937.26	8809.13
937.43	8852.39
937.60	8790.54
937.77	8780.38
937.94	8751.71
938.12	8775.46
938.29	8713.21
938.46	8721.07
938.63	8616.13
938.80	8648.08
938.97	8586.72
939.14	8558.05
939.31	8496.78
939.48	8511.77
939.65	8425.18
939.82	8419.69
939.99	8428.46
940.16	8398.15
940.33	8377.01
940.50	8343.59
940.67	8304.68
940.85	8322.45
941.02	8258.15
941.19	8301.07
941.36	8242.58
941.53	8295.01
941.70	8250.94
941.87	8198.43
942.04	8202.20
942.21	8193.35
942.38	8170.99
942.55	8101.68
942.72	8138.96
942.89	8091.03
943.06	8035.00
943.23	8031.07
943.40	7990.19
943.57	8025.66
943.74	8002.40
943.91	7978.39
944.08	7970.45
944.25	8018.86
944.42	7889.51
944.59	7884.84
944.76	7897.70
944.93	7860.92
945.10	7820.70
945.27	7823.73
945.44	7719.37
945.61	7776.96
945.78	7693.89
945.95	7704.21
946.12	7628.68
946.29	7692.42
946.46	7644.49
946.63	7613.36
946.80	7573.06
946.97	7560.20
947.14	7532.35
947.31	7596.00
947.48	7539.64
947.65	7485.24
947.82	7495.24
947.99	7511.87
948.16	7430.77
948.33	7505.64
948.50	7398.66
948.67	7413.24
948.84	7344.26
949.01	7322.64
949.18	7339.92
949.35	7336.81
949.52	7277.09
949.68	7256.44
949.85	7248.01
950.02	7258.00
950.19	7197.14
950.36	7188.12
950.53	7189.93
950.70	7193.86
950.87	7124.56
951.04	7162.81
951.21	7099.32
951.38	7064.26
951.55	7071.55
951.72	7024.94
951.89	7023.30
952.06	7024.12
952.23	6994.22
952.39	6979.15
952.56	6915.42
952.73	6978.66
952.90	6919.92
953.07	6964.49
953.24	6867.90
953.41	6872.74
953.58	6849.39
953.75	6885.84
953.92	6791.06
954.09	6807.04
954.25	6746.42
954.42	6761.25
954.59	6741.59
954.76	6705.46
954.93	6698.50
955.10	6768.13
955.27	6668.51
955.44	6699.32
955.61	6689.98
955.77	6684.98
955.94	6669.74
956.11	6667.45
956.28	6667.12
956.45	6655.90
956.62	6654.51
956.79	6652.38
956.96	6617.72
957.12	6648.53
957.29	6591.10
957.46	6579.30
957.63	6518.19
957.80	6498.70
957.97	6463.39
958.14	6531.22
958.30	6428.08
958.47	6464.70
958.64	6407.68
958.81	6479.77
958.98	6396.95
959.15	6402.44
959.32	6416.70
959.48	6392.69
959.65	6344.20
959.82	6383.19
959.99	6336.58
960.16	6362.55
960.33	6348.38
960.49	6306.43
960.66	6290.05
960.83	6304.88
961.00	6290.38
961.17	6279.15
961.33	6242.45
961.50	6227.14
961.67	6186.59
961.84	6239.01
962.01	6157.67
962.18	6215.67
962.34	6158.49
962.51	6134.16
962.68	6080.42
962.85	6131.29
963.02	6068.70
963.18	6079.85
963.35	6020.95
963.52	6028.81
963.69	6028.48
963.86	6036.59
964.02	6004.07
964.19	6006.45
964.36	5979.50
964.53	5984.08
964.69	5945.17
964.86	5990.80
965.03	5913.22
965.20	5982.69
965.37	5897.49
965.53	5898.31
965.70	5887.99
965.87	5931.82
966.04	5870.22
966.20	5853.01
966.37	5839.91
966.54	5820.16
966.71	5825.00
966.87	5768.96
967.04	5771.26
967.21	5773.22
967.38	5742.42
967.54	5753.73
967.71	5706.79
967.88	5736.36
968.05	5686.39
968.21	5707.77
968.38	5681.39
968.55	5666.81
968.72	5659.85
968.88	5593.41
969.05	5641.17
969.22	5621.76
969.39	5589.48
969.55	5611.84
969.72	5583.83
969.89	5596.12
970.05	5621.26
970.22	5578.75
970.39	5565.07
970.56	5585.22
970.72	5565.64
970.89	5581.94
971.06	5554.91
971.22	5557.53
971.39	5534.84
971.56	5579.16
971.73	5494.62
971.89	5536.40
972.06	5490.28
972.23	5513.21
972.39	5448.50
972.56	5488.23
972.73	5437.03
972.89	5473.40
973.06	5454.64
973.23	5445.96
973.39	5415.08
973.56	5447.51
973.73	5379.19
973.89	5429.57
974.06	5374.44
974.23	5377.64
974.39	5351.42
974.56	5341.10
974.73	5303.26
974.89	5319.39
975.06	5318.74
975.23	5350.11
975.39	5279.66
975.56	5302.19
975.73	5268.44
975.89	5259.92
976.06	5269.26
976.23	5231.58
976.39	5225.43
976.56	5221.34
976.73	5205.61
976.89	5192.42
977.06	5191.68
977.23	5176.04
977.39	5174.56
977.56	5170.30
977.72	5150.40
977.89	5165.06
978.06	5147.45
978.22	5114.60
978.39	5134.18
978.56	5141.79
978.72	5113.78
978.89	5131.23
979.05	5083.14
979.22	5089.28
979.39	5050.37
979.55	5074.95
979.72	5056.19
979.88	5090.59
980.05	5024.65
980.22	5055.62
980.38	5043.66
980.55	5035.14
980.71	4990.49
980.88	5024.65
981.05	4997.04
981.21	4977.47
981.38	4990.74
981.54	5002.12
981.71	4961.57
981.88	4954.20
982.04	4958.95
982.21	4946.01
982.37	4951.33
982.54	4929.87
982.70	4909.39
982.87	4937.98
983.04	4880.47
983.20	4940.03
983.37	4878.43
983.53	4914.39
983.70	4901.53
983.86	4871.63
984.03	4865.40
984.20	4879.24
984.36	4862.12
984.53	4851.39
984.69	4818.87
984.86	4800.36
985.02	4783.89
985.19	4804.37
985.35	4780.61
985.52	4774.22
985.68	4759.23
985.85	4763.41
986.02	4746.62
986.18	4752.84
986.35	4749.57
986.51	4780.37
986.68	4753.17
986.84	4725.57
987.01	4735.15
987.17	4746.54
987.34	4748.34
987.50	4721.39
987.67	4678.38
987.83	4705.09
988.00	4696.73
988.16	4668.63
988.33	4680.92
988.49	4686.24
988.66	4657.24
988.82	4660.11
988.99	4646.35
989.15	4656.26
989.32	4625.54
989.48	4638.89
989.65	4608.01
989.81	4613.99
989.98	4582.94
990.14	4589.58
990.31	4590.56
990.47	4599.33
990.64	4581.39
990.80	4589.01
990.97	4548.62
991.13	4563.37
991.30	4546.33
991.46	4560.42
991.63	4524.95
991.79	4538.05
991.95	4488.08
992.12	4520.28
992.28	4500.21
992.45	4492.92
992.61	4493.65
992.78	4483.58
992.94	4484.72
993.11	4519.05
993.27	4466.29
993.44	4492.01
993.60	4458.10
993.76	4471.86
993.93	4461.30
994.09	4473.75
994.26	4455.56
994.42	4473.01
994.59	4414.52
994.75	4455.40
994.91	4443.85
995.08	4408.05
995.24	4396.83
995.41	4422.38
995.57	4400.43
995.74	4384.05
995.90	4369.05
996.06	4379.46
996.23	4390.60
996.39	4367.99
996.56	4361.19
996.72	4341.86
996.88	4347.84
997.05	4365.86
997.21	4347.43
997.38	4345.95
997.54	4320.64
997.70	4348.98
997.87	4329.65
998.03	4328.01
998.20	4289.68
998.36	4294.18
998.52	4283.37
998.69	4312.28
998.85	4275.42
999.02	4274.68
999.18	4263.63
999.34	4296.97
999.51	4283.94
999.67	4282.06
999.83	4244.87
1000.00	4270.67
1000.16	4222.67
1000.33	4239.05
1000.49	4214.06
1000.65	4244.78
1000.82	4235.04
1000.98	4209.72
1001.14	4217.83
1001.31	4236.10
1001.47	4215.29
1001.63	4224.55
1001.80	4200.47
1001.96	4199.89
1002.12	4178.27
1002.29	4200.14
1002.45	4183.02
1002.61	4164.42
1002.78	4175.56
1002.94	4174.17
1003.10	4156.80
1003.27	4140.26
1003.43	4134.60
1003.59	4149.02
1003.76	4116.66
1003.92	4136.98
1004.08	4122.07
1004.25	4133.62
1004.41	4121.41
1004.57	4107.98
1004.74	4082.26
1004.90	4140.75
1005.06	4101.02
1005.23	4094.95
1005.39	4085.04
1005.55	4104.29
1005.71	4102.41
1005.88	4077.75
1006.04	4073.82
1006.20	4061.12
1006.37	4020.57
1006.53	4050.72
1006.69	4046.21
1006.85	4062.43
1007.02	4038.18
1007.18	4039.99
1007.34	4042.53
1007.51	4050.31
1007.67	4002.80
1007.83	4033.60
1007.99	4010.91
1008.16	4029.91
1008.32	3988.87
1008.48	4033.52
1008.64	3991.16
1008.81	4005.58
1008.97	3995.51
1009.13	3974.37
1009.29	3965.60
1009.46	3982.32
1009.62	3992.06
1009.78	3967.33
1009.95	3978.96
1010.11	3960.77
1010.27	3947.17
1010.43	3948.73
1010.59	3966.26
1010.76	3953.56
1010.92	3948.24
1011.08	3958.64
1011.24	3908.67
1011.41	3968.72
1011.57	3921.86
1011.73	3940.37
1011.89	3907.03
1012.06	3939.96
1012.22	3902.04
1012.38	3888.03
1012.54	3905.72
1012.70	3894.34
1012.87	3879.34
1013.03	3895.97
1013.19	3905.23
1013.35	3898.60
1013.51	3861.24
1013.68	3901.13
1013.84	3851.16
1014.00	3884.01
1014.16	3834.37
1014.32	3857.72
1014.49	3854.11
1014.65	3873.69
1014.81	3822.98
1014.97	3846.09
1015.13	3826.18
1015.30	3856.65
1015.46	3845.18
1015.62	3840.76
1015.78	3839.70
1015.94	3831.50
1016.10	3796.77
1016.27	3837.57
1016.43	3798.24
1016.59	3817.99
1016.75	3810.78
1016.91	3797.51
1017.07	3781.37
1017.24	3794.80
1017.40	3777.52
1017.56	3793.00
1017.72	3759.17
1017.88	3780.55
1018.04	3758.19
1018.21	3804.63
1018.37	3770.39
1018.53	3785.14
1018.69	3779.89
1018.85	3772.77
1019.01	3738.53
1019.17	3760.73
1019.34	3760.97
1019.50	3736.72
1019.66	3721.49
1019.82	3726.16
1019.98	3734.02
1020.14	3744.42
1020.30	3736.07
1020.46	3731.81
1020.63	3718.70
1020.79	3723.94
1020.95	3712.07
1021.11	3719.44
1021.27	3693.31
1021.43	3713.46
1021.59	3717.39
1021.75	3708.54
1021.91	3680.61
1022.07	3704.45
1022.24	3668.49
1022.40	3686.59
1022.56	3652.18
1022.72	3682.25
1022.88	3670.45
1023.04	3674.88
1023.20	3652.02
1023.36	3666.93
1023.52	3672.17
1023.68	3671.76
1023.84	3647.92
1024.01	3671.19
1024.17	3647.51
1024.33	3654.07
1024.49	3642.52
1024.65	3638.09
1024.81	3633.42
1024.97	3647.92
1025.13	3635.80
1025.29	3645.22
1025.45	3628.26
1025.61	3649.97
1025.77	3602.05
1025.93	3620.89
1026.09	3626.22
1026.25	3620.32
1026.41	3612.70
1026.57	3632.36
1026.73	3635.96
1026.90	3617.45
1027.06	3624.17
1027.22	3630.23
1027.38	3595.41
1027.54	3626.22
1027.70	3609.34
1027.86	3593.53
1028.02	3611.47
1028.18	3615.98
1028.34	3591.32
1028.50	3607.87
1028.66	3578.87
1028.82	3594.27
1028.98	3579.85
1029.14	3590.74
1029.30	3585.99
1029.46	3591.65
1029.62	3589.35
1029.78	3548.47
1029.94	3563.96
1030.10	3578.78
1030.26	3537.17
1030.42	3545.94
1030.58	3542.33
1030.74	3572.97
1030.90	3541.43
1031.06	3568.46
1031.22	3538.48
1031.38	3534.22
1031.54	3540.86
1031.70	3553.23
1031.86	3537.83
1032.02	3530.70
1032.18	3493.59
1032.34	3535.29
1032.50	3507.60
1032.66	3530.12
1032.82	3506.37
1032.98	3517.92
1033.14	3510.63
1033.30	3534.63
1033.45	3501.86
1033.61	3526.03
1033.77	3513.00
1033.93	3508.42
1034.09	3493.59
1034.25	3521.28
1034.41	3502.76
1034.57	3504.07
1034.73	3502.44
1034.89	3502.03
1035.05	3517.02
1035.21	3491.70
1035.37	3484.82
1035.53	3490.07
1035.69	3481.06
1035.85	3524.06
1036.01	3485.81
1036.16	3474.83
1036.32	3464.59
1036.48	3468.93
1036.64	3447.80
1036.80	3483.10
1036.96	3459.59
1037.12	3470.57
1037.28	3481.55
1037.44	3452.06
1037.60	3460.41
1037.76	3464.10
1037.91	3440.51
1038.07	3476.47
1038.23	3455.99
1038.39	3462.95
1038.55	3448.94
1038.71	3460.17
1038.87	3447.96
1039.03	3464.92
1039.19	3432.56
1039.35	3438.87
1039.50	3454.68
1039.66	3444.19
1039.82	3432.56
1039.98	3431.74
1040.14	3426.17
1040.30	3437.47
1040.46	3426.17
1040.62	3403.72
1040.77	3422.97
1040.93	3455.66
1041.09	3416.01
1041.25	3418.88
1041.41	3413.47
1041.57	3415.03
1041.73	3415.03
1041.88	3415.03

