SpectraSuite Data File
++++++++++++++++++++++++++++++++++++
Date: Tue Sep 20 12:07:37 EDT 2022
User: Laboratoire
Dark Spectrum Present: No
Reference Spectrum Present: No
Number of Sampled Component Spectra: 1
Spectrometers: FLMT00174
Integration Time (usec): 15000 (FLMT00174)
Spectra Averaged: 25 (FLMT00174)
Boxcar Smoothing: 0 (FLMT00174)
Correct for Electrical Dark: No (FLMT00174)
Strobe/Lamp Enabled: No (FLMT00174)
Correct for Detector Non-linearity: No (FLMT00174)
Correct for Stray Light: No (FLMT00174)
Number of Pixels in Processed Spectrum: 3648
>>>>>Begin Processed Spectral Data<<<<<
345.74	3180.41
345.96	3180.41
346.18	3180.41
346.39	3189.26
346.61	3225.31
346.83	3236.04
347.05	3215.39
347.27	3219.98
347.49	3206.63
347.71	3213.51
347.93	3219.16
348.15	3231.29
348.36	3214.82
348.58	3222.19
348.80	3221.05
349.02	3213.43
349.24	3220.80
349.46	3303.05
349.68	3310.01
349.90	3330.41
350.11	3305.18
350.33	3328.44
350.55	3313.53
350.77	3329.42
350.99	3306.16
351.21	3315.25
351.43	3303.21
351.65	3326.15
351.86	3325.49
352.08	3332.37
352.30	3296.98
352.52	3323.20
352.74	3309.35
352.96	3302.72
353.18	3325.57
353.39	3318.77
353.61	3297.48
353.83	3325.66
354.05	3337.94
354.27	3331.39
354.49	3319.27
354.70	3313.29
354.92	3302.96
355.14	3317.46
355.36	3320.17
355.58	3327.38
355.80	3303.62
356.02	3317.46
356.23	3316.56
356.45	3316.89
356.67	3325.49
356.89	3342.28
357.11	3309.85
357.33	3346.71
357.54	3307.80
357.76	3307.55
357.98	3313.04
358.20	3328.77
358.42	3299.20
358.63	3313.86
358.85	3325.25
359.07	3326.56
359.29	3307.88
359.51	3310.75
359.73	3323.69
359.94	3314.10
360.16	3303.46
360.38	3311.48
360.60	3306.98
360.82	3330.41
361.03	3343.10
361.25	3306.40
361.47	3344.74
361.69	3327.21
361.91	3316.89
362.12	3314.84
362.34	3335.65
362.56	3327.38
362.78	3324.51
363.00	3331.14
363.21	3298.21
363.43	3332.95
363.65	3315.17
363.87	3336.71
364.09	3338.11
364.30	3317.14
364.52	3325.33
364.74	3330.65
364.96	3321.40
365.17	3328.44
365.39	3325.16
365.61	3316.15
365.83	3329.01
366.05	3349.74
366.26	3318.77
366.48	3319.68
366.70	3324.26
366.92	3324.18
367.13	3334.67
367.35	3326.56
367.57	3338.68
367.79	3328.60
368.01	3331.64
368.22	3336.14
368.44	3332.54
368.66	3334.91
368.88	3322.38
369.09	3343.60
369.31	3325.98
369.53	3331.72
369.75	3326.23
369.96	3348.02
370.18	3326.97
370.40	3353.26
370.62	3334.01
370.83	3337.53
371.05	3341.63
371.27	3336.71
371.49	3341.55
371.70	3341.47
371.92	3328.93
372.14	3352.61
372.36	3324.34
372.57	3353.75
372.79	3340.81
373.01	3362.52
373.22	3335.40
373.44	3345.40
373.66	3342.45
373.88	3330.24
374.09	3322.71
374.31	3345.07
374.53	3332.62
374.75	3346.95
374.96	3354.41
375.18	3361.13
375.40	3329.26
375.61	3359.24
375.83	3346.05
376.05	3356.78
376.27	3346.79
376.48	3343.76
376.70	3352.52
376.92	3350.56
377.13	3354.00
377.35	3347.28
377.57	3364.57
377.79	3337.86
378.00	3348.02
378.22	3382.43
378.44	3341.88
378.65	3362.03
378.87	3361.54
379.09	3358.34
379.30	3339.25
379.52	3379.64
379.74	3339.50
379.96	3353.10
380.17	3333.93
380.39	3370.71
380.61	3356.87
380.82	3379.80
381.04	3366.86
381.26	3348.51
381.47	3356.54
381.69	3382.26
381.91	3365.30
382.12	3380.13
382.34	3371.69
382.56	3373.99
382.77	3354.82
382.99	3380.79
383.21	3363.50
383.42	3379.07
383.64	3361.86
383.86	3373.82
384.07	3392.09
384.29	3365.96
384.51	3365.88
384.72	3384.80
384.94	3376.04
385.16	3386.11
385.37	3380.13
385.59	3381.93
385.81	3387.26
386.02	3390.78
386.24	3416.50
386.46	3403.07
386.67	3395.61
386.89	3423.88
387.11	3412.33
387.32	3430.27
387.54	3407.74
387.76	3412.33
387.97	3433.21
388.19	3426.33
388.40	3428.22
388.62	3426.01
388.84	3454.76
389.05	3450.91
389.27	3450.34
389.49	3467.21
389.70	3429.36
389.92	3463.93
390.14	3449.03
390.35	3477.94
390.57	3469.75
390.78	3451.73
391.00	3447.14
391.22	3478.35
391.43	3443.62
391.65	3483.19
391.86	3500.96
392.08	3484.09
392.30	3489.98
392.51	3491.05
392.73	3507.60
392.95	3509.48
393.16	3475.65
393.38	3505.96
393.59	3501.78
393.81	3512.10
394.03	3503.91
394.24	3504.48
394.46	3502.27
394.67	3523.49
394.89	3505.14
395.11	3536.19
395.32	3513.74
395.54	3516.85
395.75	3525.46
395.97	3513.25
396.19	3507.35
396.40	3523.49
396.62	3517.75
396.83	3529.06
397.05	3525.37
397.26	3530.94
397.48	3541.10
397.70	3524.14
397.91	3539.22
398.13	3515.63
398.34	3552.16
398.56	3544.87
398.78	3529.31
398.99	3584.03
399.21	3542.33
399.42	3576.98
399.64	3552.00
399.85	3558.55
400.07	3551.92
400.29	3557.32
400.50	3568.95
400.72	3580.34
400.93	3570.84
401.15	3571.17
401.36	3581.41
401.58	3593.53
401.79	3592.71
402.01	3600.57
402.23	3590.25
402.44	3631.05
402.66	3610.24
402.87	3626.13
403.09	3634.73
403.30	3632.36
403.52	3621.05
403.73	3620.73
403.95	3658.25
404.16	3651.28
404.38	3655.62
404.60	3660.95
404.81	3679.63
405.03	3695.76
405.24	3702.15
405.46	3730.17
405.67	3721.81
405.89	3748.03
406.10	3730.17
406.32	3731.32
406.53	3775.23
406.75	3774.98
406.96	3772.52
407.18	3772.85
407.39	3778.75
407.61	3801.69
407.82	3815.04
408.04	3857.06
408.25	3852.97
408.47	3841.09
408.68	3870.50
408.90	3871.23
409.12	3903.76
409.33	3929.89
409.55	3921.29
409.76	3934.39
409.98	3924.15
410.19	3939.72
410.41	3979.78
410.62	4002.55
410.84	3973.22
411.05	4018.93
411.27	4036.14
411.48	4026.55
411.70	4051.78
411.91	4052.77
412.12	4072.34
412.34	4057.44
412.55	4082.26
412.77	4087.75
412.98	4095.94
413.20	4111.01
413.41	4129.03
413.63	4105.19
413.84	4123.87
414.06	4162.70
414.27	4134.19
414.49	4157.38
414.70	4161.80
414.92	4181.05
415.13	4144.76
415.35	4175.15
415.56	4183.84
415.78	4181.13
415.99	4175.56
416.21	4185.15
416.42	4192.52
416.63	4209.72
416.85	4205.30
417.06	4188.92
417.28	4145.42
417.49	4227.17
417.71	4198.34
417.92	4214.80
418.14	4190.96
418.35	4214.64
418.57	4219.23
418.78	4203.66
418.99	4197.03
419.21	4226.43
419.42	4208.25
419.64	4199.97
419.85	4228.48
420.07	4239.38
420.28	4233.56
420.50	4223.89
420.71	4236.92
420.92	4251.75
421.14	4263.79
421.35	4238.23
421.57	4237.17
421.78	4254.70
422.00	4251.50
422.21	4288.36
422.42	4271.49
422.64	4254.78
422.85	4309.25
423.07	4297.21
423.28	4291.23
423.50	4321.30
423.71	4334.40
423.92	4353.65
424.14	4316.95
424.35	4345.13
424.57	4365.70
424.78	4371.02
424.99	4372.00
425.21	4399.20
425.42	4407.88
425.64	4403.30
425.85	4407.31
426.06	4416.40
426.28	4447.53
426.49	4470.55
426.71	4483.90
426.92	4484.97
427.13	4524.95
427.35	4526.34
427.56	4568.69
427.78	4552.22
427.99	4585.07
428.20	4633.90
428.42	4631.19
428.63	4651.18
428.84	4638.32
429.06	4699.43
429.27	4720.08
429.49	4735.56
429.70	4802.57
429.91	4779.06
430.13	4812.56
430.34	4837.14
430.56	4848.53
430.77	4890.39
430.98	4889.73
431.20	4951.66
431.41	4980.50
431.62	5013.18
431.84	4989.67
432.05	5086.17
432.26	5076.18
432.48	5062.82
432.69	5178.33
432.91	5162.36
433.12	5212.00
433.33	5236.00
433.55	5318.98
433.76	5321.03
433.97	5324.47
434.19	5360.84
434.40	5466.85
434.61	5474.96
434.83	5521.00
435.04	5496.75
435.25	5577.85
435.47	5596.36
435.68	5575.88
435.89	5699.66
436.11	5715.80
436.32	5760.77
436.53	5798.37
436.75	5762.33
436.96	5824.51
437.17	5796.00
437.39	5884.31
437.60	5931.08
437.81	5982.28
438.03	5993.34
438.24	6013.16
438.45	6116.95
438.67	6070.34
438.88	6160.37
439.09	6183.06
439.31	6188.88
439.52	6247.21
439.73	6231.31
439.94	6192.24
440.16	6267.93
440.37	6237.13
440.58	6337.97
440.80	6389.50
441.01	6325.68
441.22	6471.66
441.44	6404.41
441.65	6394.58
441.86	6414.32
442.08	6453.64
442.29	6428.25
442.50	6465.85
442.71	6467.40
442.93	6494.85
443.14	6463.55
443.35	6520.90
443.57	6433.16
443.78	6519.83
443.99	6534.74
444.20	6471.75
444.42	6531.30
444.63	6518.52
444.84	6588.32
445.06	6600.11
445.27	6496.57
445.48	6503.86
445.69	6534.09
445.91	6526.96
446.12	6469.29
446.33	6533.43
446.54	6606.42
446.76	6521.96
446.97	6547.03
447.18	6507.05
447.39	6546.95
447.61	6544.24
447.82	6564.48
448.03	6504.59
448.25	6534.41
448.46	6591.76
448.67	6589.30
448.88	6519.01
449.10	6594.13
449.31	6628.54
449.52	6545.72
449.73	6559.89
449.95	6636.40
450.16	6546.70
450.37	6662.94
450.58	6753.79
450.79	6606.75
451.01	6649.51
451.22	6608.39
451.43	6605.85
451.64	6679.98
451.86	6661.55
452.07	6694.65
452.28	6704.07
452.49	6772.47
452.71	6684.82
452.92	6704.39
453.13	6741.01
453.34	6773.86
453.55	6861.19
453.77	6851.93
453.98	6874.70
454.19	6839.56
454.40	6842.51
454.62	6930.33
454.83	6837.76
455.04	7017.16
455.25	6898.79
455.46	7114.07
455.68	7021.58
455.89	6999.22
456.10	7052.14
456.31	7123.33
456.52	7155.36
456.74	7151.83
456.95	7249.32
457.16	7236.87
457.37	7328.62
457.58	7336.64
457.80	7320.42
458.01	7331.15
458.22	7627.78
458.43	7511.79
458.64	7577.40
458.86	7488.36
459.07	7595.59
459.28	7618.03
459.49	7751.97
459.70	7900.57
459.91	7882.80
460.13	7844.46
460.34	7939.73
460.55	7912.04
460.76	8095.05
460.97	8097.50
461.19	8152.88
461.40	8352.19
461.61	8271.83
461.82	8395.28
462.03	8474.33
462.24	8480.72
462.46	8505.79
462.67	8590.74
462.88	8713.70
463.09	8738.11
463.30	8907.68
463.51	8845.10
463.72	9072.58
463.94	9139.02
464.15	9165.73
464.36	9178.91
464.57	9443.43
464.78	9487.09
464.99	9526.50
465.20	9573.43
465.42	9780.53
465.63	9843.85
465.84	9842.70
466.05	10019.40
466.26	10113.85
466.47	10266.63
466.68	10236.81
466.90	10460.21
467.11	10446.69
467.32	10636.08
467.53	10817.53
467.74	10710.22
467.95	10867.91
468.16	11127.35
468.37	11199.85
468.59	11317.89
468.80	11502.05
469.01	11404.40
469.22	11692.26
469.43	11986.43
469.64	11853.07
469.85	12017.73
470.06	12165.75
470.28	12368.58
470.49	12177.14
470.70	12470.98
470.91	12748.69
471.12	12591.49
471.33	12957.25
471.54	12875.50
471.75	13024.75
471.96	13328.18
472.17	13332.93
472.39	13674.45
472.60	13420.75
472.81	13797.41
473.02	13712.13
473.23	14028.01
473.44	14148.02
473.65	14101.41
473.86	14223.39
474.07	14325.21
474.28	14395.99
474.49	14820.33
474.71	14725.80
474.92	14957.30
475.13	14876.94
475.34	14949.19
475.55	15001.62
475.76	15124.00
475.97	15506.24
476.18	15389.91
476.39	15620.02
476.60	15744.46
476.81	15747.41
477.02	15933.11
477.23	15913.54
477.44	15914.36
477.65	16074.10
477.87	16228.68
478.08	16246.78
478.29	16257.27
478.50	16615.33
478.71	16443.80
478.92	16597.56
479.13	16568.64
479.34	16650.97
479.55	16703.56
479.76	16652.03
479.97	16702.82
480.18	17177.62
480.39	16761.40
480.60	17102.67
480.81	17133.80
481.02	17130.77
481.23	17143.63
481.44	17411.50
481.65	17456.07
481.86	17662.50
482.07	17247.17
482.28	17906.21
482.49	17611.96
482.71	17637.27
482.92	17752.28
483.13	17907.27
483.34	17754.99
483.55	17831.91
483.76	17819.46
483.97	18025.16
484.18	17937.91
484.39	18104.21
484.60	17946.51
484.81	18274.03
485.02	18075.95
485.23	18335.30
485.44	18339.72
485.65	18479.15
485.86	18326.04
486.07	18561.31
486.28	18407.23
486.49	18625.54
486.70	18637.66
486.91	18809.77
487.12	18685.42
487.33	18620.46
487.54	18971.97
487.75	18945.76
487.96	18939.21
488.17	18862.94
488.38	19103.29
488.59	19063.15
488.80	19104.27
489.01	19173.08
489.22	19406.72
489.43	19363.05
489.64	19213.80
489.85	19602.01
490.06	19291.54
490.26	19605.61
490.47	19512.80
490.68	19734.47
490.89	19938.53
491.10	19661.16
491.31	19953.77
491.52	20132.68
491.73	20008.90
491.94	20024.71
492.15	20224.10
492.36	20326.99
492.57	20383.11
492.78	20362.30
492.99	20460.60
493.20	20666.22
493.41	20747.89
493.62	20821.45
493.83	20857.66
494.04	20941.79
494.25	21118.74
494.46	21157.48
494.67	21090.23
494.88	21310.59
495.08	21364.33
495.29	21508.01
495.50	21756.96
495.71	21647.77
495.92	21920.06
496.13	22021.73
496.34	21919.57
496.55	22164.10
496.76	22470.80
496.97	22297.05
497.18	22592.29
497.39	22598.19
497.60	23044.65
497.81	22784.23
498.02	23091.99
498.22	22849.68
498.43	23434.09
498.64	23521.74
498.85	23567.94
499.06	23710.40
499.27	24097.55
499.48	23609.31
499.69	24062.73
499.90	24258.11
500.11	24523.93
500.32	24834.49
500.52	24723.41
500.73	25270.13
500.94	25327.48
501.15	25402.43
501.36	25506.39
501.57	25466.74
501.78	25830.05
501.99	26130.36
502.20	26291.50
502.41	26349.90
502.61	26457.30
502.82	26882.78
503.03	26824.38
503.24	27315.64
503.45	27152.46
503.66	27661.09
503.87	27731.87
504.08	28082.32
504.28	28072.33
504.49	28393.69
504.70	28617.91
504.91	28921.66
505.12	28810.99
505.33	29459.05
505.54	29555.96
505.75	29694.48
505.95	29999.30
506.16	30014.87
506.37	30066.47
506.58	30711.75
506.79	30499.33
507.00	31135.84
507.21	31003.22
507.41	31245.45
507.62	31488.26
507.83	32157.70
508.04	31947.00
508.25	32539.93
508.46	32410.25
508.67	33021.69
508.87	32988.03
509.08	33540.24
509.29	33571.12
509.50	33785.91
509.71	34078.04
509.92	34347.71
510.12	34298.81
510.33	34578.48
510.54	34621.08
510.75	35042.06
510.96	35295.92
511.17	35720.75
511.37	35795.54
511.58	36162.05
511.79	36025.90
512.00	36195.96
512.21	36745.80
512.42	36851.23
512.62	37130.00
512.83	37494.87
513.04	37442.85
513.25	37935.84
513.46	37249.60
513.66	38473.80
513.87	38155.71
514.08	38601.92
514.29	38534.83
514.50	38631.08
514.71	39108.26
514.91	39046.98
515.12	39062.87
515.33	39517.20
515.54	39413.73
515.75	40041.88
515.95	39764.67
516.16	39936.29
516.37	40410.77
516.58	40518.98
516.78	40223.25
516.99	40719.76
517.20	40712.64
517.41	40786.03
517.62	41089.63
517.82	40911.78
518.03	41517.41
518.24	41836.15
518.45	41246.58
518.66	41702.38
518.86	41385.76
519.07	41875.14
519.28	41176.71
519.49	41915.69
519.69	42010.80
519.90	41947.81
520.11	42114.02
520.32	41938.71
520.52	42367.80
520.73	41970.50
520.94	42486.26
521.15	42321.19
521.36	41713.76
521.56	42512.39
521.77	41864.25
521.98	42454.56
522.19	41881.86
522.39	42102.06
522.60	41886.37
522.81	42085.02
523.02	41754.23
523.22	42057.91
523.43	42165.71
523.64	41995.40
523.84	42023.91
524.05	42239.68
524.26	42015.31
524.47	41721.96
524.67	41776.51
524.88	41877.52
525.09	42085.35
525.30	41756.94
525.50	41673.05
525.71	41649.38
525.92	41630.78
526.13	41775.37
526.33	41501.35
526.54	41151.15
526.75	41314.33
526.95	41607.11
527.16	40735.41
527.37	41167.28
527.58	41255.10
527.78	41039.98
527.99	41226.68
528.20	41267.39
528.40	40768.75
528.61	40510.38
528.82	40838.05
529.03	40586.97
529.23	40454.26
529.44	40671.84
529.65	40533.40
529.85	40421.41
530.06	40209.00
530.27	40241.44
530.47	39689.63
530.68	40401.92
530.89	39505.73
531.09	40090.79
531.30	39807.76
531.51	39408.24
531.72	39843.07
531.92	39776.22
532.13	39792.77
532.34	39422.58
532.54	39361.22
532.75	39420.61
532.96	39201.81
533.16	39405.87
533.37	39462.64
533.58	39057.47
533.78	39299.62
533.99	39286.35
534.20	38867.99
534.40	39032.56
534.61	39084.91
534.82	39030.19
535.02	38974.40
535.23	38915.42
535.44	38979.32
535.64	38729.79
535.85	38871.84
536.06	38766.57
536.26	38684.49
536.47	38619.69
536.68	39044.44
536.88	38399.17
537.09	38831.29
537.29	38360.50
537.50	39020.77
537.71	38462.25
537.91	38525.32
538.12	38733.31
538.33	38447.50
538.53	38693.67
538.74	38751.58
538.95	38606.34
539.15	38335.27
539.36	38638.78
539.56	38858.65
539.77	38483.05
539.98	38514.84
540.18	38739.38
540.39	38519.18
540.60	38641.32
540.80	38837.76
541.01	38665.65
541.21	38674.01
541.42	38875.61
541.63	38776.65
541.83	38955.07
542.04	38895.84
542.25	38852.02
542.45	39036.58
542.66	39007.99
542.86	39177.81
543.07	38377.54
543.28	39225.89
543.48	39063.69
543.69	39327.14
543.89	39159.37
544.10	39777.62
544.31	39499.91
544.51	39363.19
544.72	39619.68
544.92	39534.73
545.13	39909.83
545.33	39809.97
545.54	39688.82
545.75	39944.98
545.95	39787.61
546.16	39833.89
546.36	40385.70
546.57	39702.82
546.78	39241.05
546.98	39784.25
547.19	39244.24
547.39	40176.97
547.60	40350.80
547.80	40945.61
548.01	41089.22
548.22	40766.37
548.42	41071.11
548.63	41287.13
548.83	41293.85
549.04	41524.45
549.24	41200.05
549.45	41478.00
549.65	41854.34
549.86	41387.24
550.07	41731.13
550.27	42096.65
550.48	42304.40
550.68	42209.70
550.89	42333.48
551.09	42622.90
551.30	42506.90
551.50	43025.53
551.71	42830.24
551.91	42952.87
552.12	43139.56
552.33	43609.86
552.53	43292.42
552.74	44084.82
552.94	44176.98
553.15	44017.89
553.35	44336.48
553.56	44063.44
553.76	44680.70
553.97	44445.84
554.17	44796.04
554.38	45507.59
554.58	45028.93
554.79	45738.84
554.99	45366.44
555.20	45529.62
555.40	46213.40
555.61	45942.82
555.81	45967.40
556.02	46975.49
556.22	46869.89
556.43	46693.69
556.63	46999.90
556.84	47101.07
557.04	47785.09
557.25	47403.84
557.45	47985.96
557.66	48118.09
557.86	48030.60
558.07	48775.41
558.27	48408.33
558.48	48588.55
558.68	48799.08
558.89	49029.03
559.09	49227.43
559.30	49192.13
559.50	49558.30
559.71	49349.82
559.91	50259.20
560.12	50177.36
560.32	50440.49
560.53	50792.00
560.73	50668.63
560.94	51309.81
561.14	50964.11
561.35	51706.13
561.55	51633.96
561.76	51933.95
561.96	51491.34
562.17	52112.37
562.37	52495.26
562.57	52530.81
562.78	52525.40
562.98	53068.03
563.19	53060.17
563.39	53395.87
563.60	53548.89
563.80	53126.77
564.01	53989.94
564.21	53748.20
564.42	53812.10
564.62	54160.99
564.82	54652.91
565.03	54418.30
565.23	54643.66
565.44	55072.66
565.64	54956.59
565.85	55527.72
566.05	55318.83
566.25	55731.70
566.46	55566.47
566.66	55983.44
566.87	56097.14
567.07	56191.92
567.28	56465.12
567.48	56949.26
567.68	56156.45
567.89	57453.88
568.09	56822.45
568.30	57006.03
568.50	57439.79
568.71	57380.40
568.91	57679.65
569.11	57194.03
569.32	57454.86
569.52	57636.56
569.73	57179.62
569.93	57996.35
570.13	57847.33
570.34	57709.79
570.54	58338.19
570.75	58158.22
570.95	58146.67
571.15	58002.33
571.36	58654.73
571.56	58084.24
571.77	58136.92
571.97	57692.10
572.17	58761.55
572.38	58566.50
572.58	58784.90
572.79	58546.10
572.99	58684.13
573.19	58735.66
573.40	58534.80
573.60	58718.70
573.81	58606.89
574.01	59030.00
574.21	58841.58
574.42	58967.90
574.62	58666.36
574.82	59179.25
575.03	58899.83
575.23	59266.66
575.43	58810.21
575.64	58761.30
575.84	59282.88
576.05	58509.81
576.25	58695.03
576.45	58465.82
576.66	59003.13
576.86	58432.15
577.06	58786.37
577.27	58535.70
577.47	58599.92
577.67	58414.05
577.88	57836.11
578.08	58434.28
578.28	58505.88
578.49	58307.72
578.69	58408.23
578.89	58095.38
579.10	58042.96
579.30	58736.56
579.50	58032.96
579.71	57479.11
579.91	57969.89
580.11	57520.97
580.32	57322.65
580.52	57166.92
580.72	57743.46
580.93	56963.19
581.13	56976.78
581.33	57371.06
581.54	56901.83
581.74	56888.64
581.94	56998.74
582.15	57179.53
582.35	56641.41
582.55	56638.30
582.76	56082.81
582.96	56543.84
583.16	55877.93
583.37	56107.71
583.57	55586.30
583.77	56130.73
583.97	54961.26
584.18	56001.87
584.38	55677.47
584.58	55246.17
584.79	55425.41
584.99	55129.52
585.19	54750.40
585.40	54639.64
585.60	54761.78
585.80	54266.26
586.00	54511.44
586.21	54374.06
586.41	54321.39
586.61	54447.13
586.82	54155.01
587.02	53749.68
587.22	53855.19
587.42	53248.74
587.63	53715.44
587.83	52877.24
588.03	53175.18
588.23	52738.96
588.44	52943.84
588.64	52407.93
588.84	52568.33
589.05	52612.48
589.25	52535.72
589.45	52387.94
589.65	52100.82
589.86	52276.29
590.06	52125.15
590.26	51702.69
590.46	51809.10
590.67	51042.18
590.87	51654.61
591.07	51622.49
591.27	50924.95
591.48	51294.82
591.68	50630.21
591.88	51449.48
592.08	50520.11
592.29	50898.09
592.49	50707.21
592.69	50806.99
592.89	50348.82
593.10	50412.63
593.30	50052.44
593.50	50538.22
593.70	49429.45
593.90	50147.71
594.11	49825.61
594.31	49719.03
594.51	49812.33
594.71	49668.81
594.92	49649.23
595.12	49315.09
595.32	49205.07
595.52	49376.53
595.72	48548.08
595.93	49140.27
596.13	48848.40
596.33	48479.43
596.53	48908.03
596.73	48672.52
596.94	48467.97
597.14	48757.38
597.34	48299.38
597.54	48619.11
597.74	48007.25
597.95	48065.50
598.15	47947.21
598.35	47947.62
598.55	47998.41
598.75	47663.52
598.96	48207.87
599.16	47767.81
599.36	47791.56
599.56	47669.01
599.76	47520.66
599.97	47916.49
600.17	47596.84
600.37	47683.68
600.57	46897.42
600.77	47736.68
600.97	47222.15
601.18	47675.98
601.38	47082.15
601.58	47387.62
601.78	47132.69
601.98	46961.32
602.18	47239.68
602.39	47479.37
602.59	47160.62
602.79	46957.30
602.99	46817.47
603.19	46908.40
603.39	46665.59
603.60	46758.16
603.80	46788.30
604.00	46696.15
604.20	46707.53
604.40	46929.86
604.60	46542.88
604.80	46670.09
605.01	46630.94
605.21	46485.37
605.41	46395.50
605.61	46139.43
605.81	46462.02
606.01	46771.02
606.21	46309.16
606.42	46699.67
606.62	46469.07
606.82	46861.62
607.02	46413.93
607.22	46607.92
607.42	46854.74
607.62	46390.34
607.82	46577.77
608.03	46612.75
608.23	46443.02
608.43	46283.03
608.63	46805.75
608.83	46642.90
609.03	46663.30
609.23	46825.17
609.43	46949.19
609.63	46785.60
609.84	46577.85
610.04	47037.42
610.24	46953.94
610.44	46935.51
610.64	46570.81
610.84	46850.73
611.04	47217.31
611.24	46864.57
611.44	46277.38
611.64	47010.14
611.85	47061.01
612.05	47023.16
612.25	47193.88
612.45	46871.78
612.65	47250.65
612.85	47251.39
613.05	46992.36
613.25	47513.53
613.45	47367.71
613.65	47468.23
613.85	46989.33
614.05	47507.39
614.25	47678.60
614.46	47626.82
614.66	47453.32
614.86	47362.47
615.06	47580.87
615.26	47906.58
615.46	47402.12
615.66	48017.82
615.86	48026.75
616.06	47655.66
616.26	47749.95
616.46	48356.80
616.66	48078.85
616.86	48629.59
617.06	48243.02
617.26	48742.80
617.46	48613.37
617.66	48495.00
617.86	48328.79
618.07	48683.25
618.27	48543.49
618.47	48709.46
618.67	48789.82
618.87	48968.24
619.07	48833.90
619.27	48821.85
619.47	49031.24
619.67	49540.77
619.87	49088.01
620.07	49548.88
620.27	49555.68
620.47	49287.64
620.67	49726.65
620.87	49846.49
621.07	50083.16
621.27	49956.02
621.47	49801.44
621.67	50191.04
621.87	49982.89
622.07	50519.46
622.27	50478.01
622.47	50405.67
622.67	50559.27
622.87	50337.68
623.07	50967.96
623.27	51428.84
623.47	50510.20
623.67	51094.77
623.87	51449.97
624.07	51408.36
624.27	50962.06
624.47	51383.29
624.67	51380.26
624.87	51587.27
625.07	51218.22
625.27	51808.20
625.47	51572.36
625.67	51699.58
625.87	52124.74
626.07	52095.98
626.27	52384.26
626.47	52355.50
626.67	52367.30
626.87	52039.62
627.07	52644.59
627.27	52622.72
627.47	52889.37
627.67	52769.03
627.87	52994.39
628.07	53410.53
628.27	53346.80
628.47	53244.89
628.67	53811.44
628.86	54008.54
629.06	53740.09
629.26	53767.37
629.46	54291.08
629.66	54201.21
629.86	53933.99
630.06	54428.95
630.26	54375.70
630.46	54743.68
630.66	54285.43
630.86	54532.57
631.06	54522.33
631.26	54438.04
631.46	54938.07
631.66	55009.75
631.86	54746.05
632.06	55311.79
632.26	55099.78
632.45	55179.00
632.65	55506.10
632.85	55676.73
633.05	55646.75
633.25	55818.45
633.45	55404.85
633.65	55565.98
633.85	56296.12
634.05	55418.44
634.25	55945.43
634.45	56034.15
634.65	56511.65
634.84	56105.99
635.04	56483.80
635.24	56294.97
635.44	56755.60
635.64	56587.75
635.84	56897.98
636.04	56816.88
636.24	56783.46
636.44	57052.97
636.64	56388.36
636.84	57531.46
637.03	56903.88
637.23	57385.15
637.43	57576.43
637.63	57475.59
637.83	57799.33
638.03	57703.73
638.23	57301.76
638.43	57956.86
638.62	58232.43
638.82	57138.49
639.02	57980.21
639.22	57603.14
639.42	57897.47
639.62	57503.28
639.82	57693.41
640.02	57913.53
640.21	58157.81
640.41	57520.56
640.61	58175.99
640.81	58063.35
641.01	58050.49
641.21	57987.42
641.41	58692.49
641.61	58012.89
641.80	58221.54
642.00	58712.40
642.20	58689.71
642.40	57977.18
642.60	58521.61
642.80	58704.53
642.99	58333.36
643.19	58917.85
643.39	58337.70
643.59	58724.60
643.79	58559.86
643.99	58865.34
644.19	58492.12
644.38	58115.13
644.58	58478.85
644.78	58374.97
644.98	58220.97
645.18	58486.46
645.38	58671.11
645.57	58229.65
645.77	58497.69
645.97	58165.67
646.17	58552.90
646.37	58528.24
646.56	58357.77
646.76	58412.57
646.96	58603.94
647.16	58397.50
647.36	58623.35
647.55	58383.25
647.75	58454.76
647.95	57999.46
648.15	58329.26
648.35	58063.93
648.55	58200.98
648.74	57911.56
648.94	57943.26
649.14	58222.44
649.34	57602.15
649.54	57713.48
649.73	57762.30
649.93	57457.32
650.13	57595.84
650.33	57250.56
650.52	57653.60
650.72	57984.47
650.92	57442.00
651.12	57209.84
651.32	57431.27
651.51	57592.24
651.71	57521.46
651.91	57214.68
652.11	56963.27
652.30	56733.98
652.50	57211.81
652.70	57137.43
652.90	56727.75
653.10	56852.51
653.29	56447.51
653.49	56756.10
653.69	56080.84
653.89	56220.59
654.08	55952.72
654.28	56386.81
654.48	55923.47
654.68	56222.39
654.87	55743.58
655.07	55437.86
655.27	55935.84
655.47	55559.51
655.66	55550.01
655.86	55191.12
656.06	55711.63
656.26	54679.78
656.45	54984.19
656.65	54970.02
656.85	54733.93
657.04	54302.14
657.24	54250.86
657.44	54008.21
657.64	54443.04
657.83	53271.27
658.03	53832.09
658.23	53743.94
658.43	53462.39
658.62	53485.98
658.82	53229.57
659.02	53180.01
659.21	53065.82
659.41	52880.85
659.61	53231.46
659.81	52878.14
660.00	52622.72
660.20	52658.44
660.40	52231.15
660.59	52243.11
660.79	51637.16
660.99	51899.54
661.19	51737.51
661.38	51491.83
661.58	50666.01
661.78	51156.70
661.97	50884.32
662.17	51584.89
662.37	50894.48
662.56	50858.11
662.76	50854.75
662.96	50992.70
663.15	50819.85
663.35	50646.02
663.55	50385.36
663.74	50031.96
663.94	50389.04
664.14	49754.09
664.33	49924.48
664.53	49634.00
664.73	49904.25
664.93	49027.72
665.12	49417.24
665.32	49026.73
665.52	49005.93
665.71	48673.17
665.91	48705.61
666.10	48314.53
666.30	48593.22
666.50	48038.71
666.69	47997.42
666.89	48304.21
667.09	48357.21
667.28	47820.48
667.48	47585.05
667.68	47541.38
667.87	47522.54
668.07	47172.58
668.27	47587.01
668.46	47455.37
668.66	47055.93
668.86	47485.92
669.05	46893.98
669.25	47011.94
669.44	46556.39
669.64	46356.02
669.84	46214.46
670.03	46563.03
670.23	46275.57
670.43	46183.66
670.62	46039.16
670.82	45891.46
671.01	45962.07
671.21	45428.21
671.41	45350.06
671.60	45470.64
671.80	45506.93
672.00	45107.17
672.19	45342.11
672.39	45163.36
672.58	45011.16
672.78	44685.04
672.98	45083.33
673.17	44568.22
673.37	43908.37
673.56	44129.88
673.76	44206.06
673.96	44490.32
674.15	43981.60
674.35	44091.21
674.54	43896.00
674.74	43658.93
674.94	43622.31
675.13	43730.11
675.33	43219.76
675.52	43576.02
675.72	43470.92
675.91	43157.34
676.11	43309.05
676.31	42784.28
676.50	42798.53
676.70	42677.05
676.89	42618.89
677.09	42715.30
677.28	42547.53
677.48	41957.39
677.68	42289.82
677.87	41978.36
678.07	41756.03
678.26	41818.87
678.46	41757.59
678.65	41643.56
678.85	41848.93
679.04	41319.24
679.24	41512.49
679.44	41367.08
679.63	41549.11
679.83	41304.33
680.02	41242.32
680.22	40979.53
680.41	40973.55
680.61	40684.62
680.80	40516.52
681.00	40642.92
681.19	40515.29
681.39	40436.41
681.59	40353.91
681.78	40148.79
681.98	40538.48
682.17	40018.29
682.37	40334.66
682.56	39933.34
682.76	40240.05
682.95	39913.85
683.15	40001.50
683.34	39819.31
683.54	39879.03
683.73	39821.03
683.93	39428.64
684.12	39794.74
684.32	39841.27
684.51	39264.23
684.71	39446.66
684.90	39352.13
685.10	39361.30
685.29	39102.93
685.49	39362.37
685.68	39267.10
685.88	39189.11
686.07	38843.58
686.27	39170.92
686.46	39002.75
686.66	38829.24
686.85	38932.95
687.05	38634.60
687.24	38533.02
687.44	38721.19
687.63	38691.21
687.83	38320.69
688.02	38643.12
688.22	38661.47
688.41	38385.24
688.61	38373.28
688.80	38514.67
689.00	38138.67
689.19	38016.12
689.39	38403.92
689.58	38271.62
689.77	38137.68
689.97	38102.87
690.16	37936.41
690.36	37554.26
690.55	37490.94
690.75	37977.12
690.94	37584.24
691.14	37705.15
691.33	37278.60
691.53	37654.28
691.72	37455.30
691.91	37498.72
692.11	37497.49
692.30	37579.33
692.50	37593.09
692.69	37269.92
692.89	37371.33
693.08	37208.15
693.28	37143.76
693.47	37122.79
693.66	37197.67
693.86	37009.33
694.05	36997.13
694.25	37099.45
694.44	37232.07
694.64	37073.80
694.83	37050.38
695.02	37099.28
695.22	37195.86
695.41	36854.18
695.61	36794.87
695.80	36863.36
695.99	36805.60
696.19	36871.88
696.38	36893.26
696.58	36597.20
696.77	37100.84
696.96	36986.64
697.16	36747.36
697.35	36681.17
697.55	36643.24
697.74	36408.62
697.93	36846.56
698.13	36383.80
698.32	36615.55
698.52	36490.46
698.71	36117.89
698.90	36822.15
699.10	36552.23
699.29	36543.05
699.49	36893.75
699.68	36567.96
699.87	36521.67
700.07	36722.95
700.26	36502.26
700.45	36437.46
700.65	36282.22
700.84	36641.44
701.04	36408.05
701.23	36687.97
701.42	36602.20
701.62	36504.22
701.81	36612.11
702.00	36655.45
702.20	36342.52
702.39	36321.38
702.58	36512.66
702.78	36192.60
702.97	36153.69
703.17	36172.04
703.36	36333.91
703.55	36152.22
703.75	36196.78
703.94	36409.12
704.13	36180.15
704.33	36224.88
704.52	36480.71
704.71	36354.23
704.91	36271.33
705.10	36104.62
705.29	36208.33
705.49	36314.66
705.68	36446.55
705.87	36449.09
706.07	36095.69
706.26	36491.36
706.45	36083.24
706.65	35929.97
706.84	36390.36
707.03	36643.57
707.23	36083.16
707.42	35962.99
707.61	36498.49
707.80	36192.20
708.00	36382.90
708.19	36187.61
708.38	36598.92
708.58	35943.41
708.77	36337.03
708.96	35888.52
709.16	35843.30
709.35	36530.60
709.54	36115.11
709.74	36105.28
709.93	35842.40
710.12	36509.30
710.31	36681.33
710.51	36277.80
710.70	36389.95
710.89	36506.03
711.09	36030.08
711.28	36033.27
711.47	36327.20
711.66	36223.41
711.86	36136.24
712.05	36242.90
712.24	36435.66
712.43	36127.73
712.63	35851.17
712.82	36388.88
713.01	36114.86
713.21	36039.01
713.40	36069.32
713.59	36413.46
713.78	35981.01
713.98	36304.10
714.17	36160.17
714.36	36260.52
714.55	35961.02
714.75	36319.91
714.94	36368.73
715.13	36597.20
715.32	36220.38
715.52	36442.70
715.71	36233.89
715.90	36311.96
716.09	36286.32
716.29	36670.19
716.48	36434.10
716.67	36070.79
716.86	36404.04
717.06	36408.22
717.25	36554.03
717.44	36710.00
717.63	36777.83
717.82	36342.84
718.02	36478.09
718.21	36643.40
718.40	36716.31
718.59	36558.37
718.79	36426.81
718.98	36529.70
719.17	36843.37
719.36	36948.14
719.55	36706.40
719.75	36686.25
719.94	36568.12
720.13	36857.87
720.32	36642.50
720.51	36443.19
720.71	36440.98
720.90	36099.55
721.09	36537.16
721.28	36337.68
721.47	36816.33
721.67	36646.27
721.86	36731.88
722.05	36680.92
722.24	36341.21
722.43	36719.34
722.63	36363.82
722.82	36544.77
723.01	36552.80
723.20	36301.31
723.39	36283.53
723.58	36542.48
723.78	36153.12
723.97	36652.41
724.16	36254.54
724.35	36538.63
724.54	36362.75
724.73	36799.62
724.93	36613.34
725.12	36962.07
725.31	36316.79
725.50	36677.24
725.69	36821.17
725.88	36552.97
726.08	36233.65
726.27	36707.55
726.46	36197.60
726.65	36986.23
726.84	36400.68
727.03	36485.55
727.23	36798.48
727.42	36436.89
727.61	36420.99
727.80	36320.15
727.99	36537.16
728.18	36602.20
728.37	36432.46
728.56	36387.65
728.76	36355.71
728.95	36595.73
729.14	36520.85
729.33	36412.23
729.52	36441.23
729.71	36486.12
729.90	36598.84
730.09	36402.81
730.29	36713.12
730.48	36179.50
730.67	36758.25
730.86	36336.95
731.05	36713.20
731.24	36505.21
731.43	36465.64
731.62	36234.30
731.81	36163.52
732.01	36615.63
732.20	36177.78
732.39	36450.24
732.58	36405.92
732.77	35852.81
732.96	36225.37
733.15	36429.68
733.34	36085.05
733.53	36379.46
733.72	36448.76
733.92	36380.28
734.11	36439.43
734.30	36566.32
734.49	36746.38
734.68	36507.01
734.87	36370.20
735.06	36282.14
735.25	36408.87
735.44	36108.23
735.63	36338.75
735.82	36445.82
736.01	36241.43
736.20	36265.02
736.40	36549.85
736.59	36433.53
736.78	36558.70
736.97	36066.94
737.16	36187.03
737.35	36137.31
737.54	36122.15
737.73	35927.84
737.92	36204.56
738.11	36272.64
738.30	36126.50
738.49	36109.21
738.68	36033.03
738.87	36244.54
739.06	36005.75
739.25	36061.53
739.44	36036.88
739.63	35894.01
739.82	35563.96
740.01	35867.39
740.20	35400.20
740.39	35572.56
740.59	35579.28
740.78	35684.38
740.97	35435.68
741.16	35348.19
741.35	35527.75
741.54	35501.62
741.73	35532.26
741.92	35374.65
742.11	35431.09
742.30	35537.25
742.49	35209.91
742.68	35528.98
742.87	35264.14
743.06	34870.44
743.25	35116.85
743.44	34898.04
743.63	35020.51
743.82	34780.41
744.01	34763.20
744.20	34660.72
744.39	35006.01
744.58	34786.88
744.77	34645.16
744.96	34355.66
745.15	34656.63
745.34	34363.52
745.53	34509.26
745.72	34163.97
745.91	34216.23
746.10	33990.79
746.29	34297.17
746.48	34233.27
746.67	34186.91
746.86	34092.21
747.04	34078.04
747.23	33895.52
747.42	34136.94
747.61	33815.49
747.80	34189.77
747.99	33574.97
748.18	33915.02
748.37	33737.09
748.56	33368.95
748.75	33618.06
748.94	33505.75
749.13	33522.87
749.32	33333.56
749.51	33496.90
749.70	33465.37
749.89	33304.07
750.08	33395.98
750.27	32958.45
750.46	33145.31
750.65	33527.38
750.84	33037.83
751.02	33152.68
751.21	32922.08
751.40	32994.50
751.59	32975.41
751.78	32760.86
751.97	32754.88
752.16	32468.66
752.35	32704.67
752.54	32345.29
752.73	32620.62
752.92	32324.24
753.11	32329.89
753.30	32320.96
753.49	32344.88
753.67	32117.23
753.86	31960.60
754.05	32053.00
754.24	31833.46
754.43	31801.68
754.62	31888.68
754.81	31419.94
755.00	31629.73
755.19	31473.18
755.38	31128.55
755.56	31407.89
755.75	31581.32
755.94	31202.20
756.13	31257.98
756.32	31264.13
756.51	31042.95
756.70	31207.28
756.89	31112.33
757.08	31067.85
757.26	30966.76
757.45	30841.59
757.64	30659.24
757.83	30863.71
758.02	30695.86
758.21	30660.30
758.40	30818.16
758.59	30707.90
758.77	30406.44
758.96	30419.38
759.15	30406.52
759.34	30085.32
759.53	30089.99
759.72	30025.35
759.91	29740.11
760.09	29859.79
760.28	29870.85
760.47	29570.54
760.66	29839.89
760.85	29385.98
761.04	29714.80
761.23	29504.68
761.41	29340.35
761.60	29414.32
761.79	29166.68
761.98	29110.16
762.17	29393.84
762.36	29098.77
762.54	29366.56
762.73	29201.82
762.92	28937.72
763.11	29158.49
763.30	29086.48
763.49	28901.43
763.67	28768.96
763.86	28674.10
764.05	28839.00
764.24	28580.96
764.43	28786.25
764.61	28389.76
764.80	28427.85
764.99	28607.42
765.18	28187.83
765.37	28295.39
765.55	28252.06
765.74	28018.67
765.93	27777.67
766.12	27977.87
766.31	27966.90
766.49	28004.01
766.68	27960.34
766.87	27894.97
767.06	27758.50
767.25	27776.52
767.43	27769.96
767.62	27487.10
767.81	27530.68
768.00	27291.23
768.19	27184.90
768.37	27245.44
768.56	27172.37
768.75	27177.69
768.94	27206.45
769.12	26898.59
769.31	26845.68
769.50	26700.35
769.69	26800.21
769.88	26433.13
770.06	26792.18
770.25	26568.46
770.44	26437.15
770.63	26612.70
770.81	26427.81
771.00	26219.08
771.19	26183.77
771.38	26064.58
771.56	26198.44
771.75	25807.93
771.94	26063.52
772.13	25960.05
772.31	25732.07
772.50	26007.73
772.69	25686.85
772.88	25963.33
773.06	25600.10
773.25	25757.38
773.44	25664.08
773.62	25580.11
773.81	25526.13
774.00	25399.40
774.19	25376.87
774.37	25164.54
774.56	25343.61
774.75	24911.74
774.94	25215.49
775.12	24953.11
775.31	25106.29
775.50	25001.11
775.68	24887.74
775.87	24822.86
776.06	24695.80
776.25	24883.48
776.43	24665.57
776.62	24783.29
776.81	24448.24
776.99	24618.14
777.18	24548.92
777.37	24247.21
777.55	24301.28
777.74	24253.52
777.93	24142.36
778.12	24081.90
778.30	23923.47
778.49	23894.55
778.68	24079.12
778.86	23935.84
779.05	23992.69
779.24	23931.33
779.42	23803.87
779.61	23712.77
779.80	23800.18
779.98	23837.54
780.17	23982.45
780.36	23652.24
780.54	23750.70
780.73	23265.58
780.92	23517.15
781.10	23383.46
781.29	23182.92
781.48	23077.33
781.66	23180.06
781.85	23154.33
782.04	23063.24
782.22	23093.88
782.41	22879.66
782.60	22978.95
782.78	22903.01
782.97	22994.35
783.16	22673.14
783.34	22641.20
783.53	22733.68
783.71	22511.52
783.90	22508.73
784.09	22511.03
784.27	22569.11
784.46	22483.91
784.65	22514.06
784.83	22280.18
785.02	22343.42
785.20	22483.17
785.39	22132.40
785.58	22407.65
785.76	22397.82
785.95	22265.43
786.14	22379.06
786.32	22301.72
786.51	22232.01
786.69	22292.30
786.88	22173.28
787.07	22118.06
787.25	22129.94
787.44	22112.82
787.62	22006.65
787.81	22028.69
788.00	22004.77
788.18	21835.44
788.37	21816.19
788.55	22144.03
788.74	21936.45
788.93	22109.13
789.11	22292.30
789.30	22155.83
789.48	21964.38
789.67	22083.66
789.86	22070.06
790.04	22110.03
790.23	22015.09
790.41	21991.50
790.60	22106.92
790.78	22048.02
790.97	21729.93
791.16	21916.13
791.34	22020.42
791.53	21687.50
791.71	21963.89
791.90	21698.47
792.08	21777.36
792.27	21733.70
792.46	21625.40
792.64	21638.18
792.83	21502.44
793.01	21517.76
793.20	21504.65
793.38	21428.80
793.57	21464.27
793.75	21461.65
793.94	21513.09
794.12	21725.02
794.31	21435.43
794.50	21565.52
794.68	21612.46
794.87	21510.55
795.05	21631.55
795.24	21392.51
795.42	21402.17
795.61	21692.90
795.79	21679.39
795.98	21397.51
796.16	21550.12
796.35	21568.72
796.53	21412.25
796.72	21644.65
796.90	21651.21
797.09	21607.54
797.27	21537.26
797.46	21469.18
797.64	21545.86
797.83	21496.05
798.01	21488.52
798.20	21585.67
798.38	21365.07
798.57	21581.17
798.75	21500.72
798.94	21236.04
799.12	21716.99
799.31	21439.04
799.49	21364.49
799.68	21243.58
799.86	21325.58
800.05	21285.03
800.23	21278.31
800.42	21244.73
800.60	21461.40
800.79	21135.69
800.97	21268.97
801.16	21350.16
801.34	21132.50
801.53	21132.09
801.71	21260.95
801.90	21102.35
802.08	21280.85
802.27	21120.95
802.45	20976.20
802.64	21072.21
802.82	21074.01
803.00	20773.04
803.19	20928.60
803.37	21079.41
803.56	20793.93
803.74	20915.41
803.93	20900.67
804.11	20907.79
804.30	20811.29
804.48	20994.87
804.67	21025.02
804.85	20884.45
805.03	21106.20
805.22	20879.78
805.40	20809.57
805.59	20970.79
805.77	20924.92
805.96	20886.99
806.14	20812.11
806.32	20959.65
806.51	20965.96
806.69	20716.51
806.88	20628.53
807.06	20530.64
807.25	20616.08
807.43	20577.99
807.61	20625.58
807.80	20579.87
807.98	20728.23
808.17	20578.97
808.35	20563.33
808.53	20780.17
808.72	20562.18
808.90	20541.21
809.09	20611.00
809.27	20629.35
809.45	20458.72
809.64	20622.31
809.82	20454.70
810.01	20457.16
810.19	20456.01
810.37	20391.54
810.56	20337.97
810.74	20382.78
810.93	20197.56
811.11	20185.27
811.29	20129.08
811.48	20230.24
811.66	20249.58
811.84	20190.51
812.03	20181.18
812.21	20238.11
812.40	20308.48
812.58	20397.11
812.76	20112.45
812.95	20319.78
813.13	20012.50
813.31	20128.58
813.50	20177.82
813.68	20085.33
813.86	20169.54
814.05	20159.96
814.23	19940.99
814.42	20097.70
814.60	20004.64
814.78	20071.57
814.97	20073.04
815.15	20096.47
815.33	20122.60
815.52	20044.45
815.70	20005.13
815.88	20039.95
816.07	19744.30
816.25	19788.95
816.43	19835.81
816.62	19608.40
816.80	19725.87
816.98	19647.56
817.17	19625.85
817.35	19674.67
817.53	19688.11
817.72	19694.33
817.90	19495.52
818.08	19577.43
818.26	19678.69
818.45	19515.26
818.63	19649.85
818.81	19710.31
819.00	19487.08
819.18	19660.42
819.36	19591.11
819.55	19639.12
819.73	19474.46
819.91	19612.41
820.09	19527.30
820.28	19700.89
820.46	19525.17
820.64	19738.90
820.83	19503.71
821.01	19510.42
821.19	19484.95
821.38	19490.85
821.56	19413.51
821.74	19443.91
821.92	19346.83
822.11	19587.18
822.29	19261.31
822.47	19346.18
822.65	19378.54
822.84	19381.48
823.02	19207.98
823.20	19532.30
823.39	19268.85
823.57	19403.93
823.75	19364.61
823.93	19349.04
824.12	19444.97
824.30	19332.82
824.48	19304.73
824.66	19426.46
824.85	19070.11
825.03	19346.59
825.21	19347.73
825.39	19245.42
825.58	19399.75
825.76	19273.76
825.94	19312.67
826.12	19247.63
826.31	19148.59
826.49	19224.86
826.67	19232.80
826.85	19175.13
827.03	19195.28
827.22	19312.43
827.40	19216.75
827.58	19207.98
827.76	19279.33
827.95	19168.41
828.13	19253.12
828.31	19262.21
828.49	19283.92
828.67	19311.36
828.86	19267.04
829.04	19330.29
829.22	19271.14
829.40	19211.91
829.58	19176.28
829.77	19208.88
829.95	19146.62
830.13	19151.37
830.31	19016.78
830.49	19084.78
830.68	19057.33
830.86	18960.09
831.04	18928.72
831.22	18955.02
831.40	18962.88
831.59	19132.70
831.77	18963.04
831.95	19134.91
832.13	18849.09
832.31	19016.54
832.50	18952.07
832.68	18858.60
832.86	18948.54
833.04	19032.35
833.22	18843.52
833.40	19142.20
833.59	18902.26
833.77	19141.46
833.95	18662.16
834.13	19229.77
834.31	18984.59
834.49	19070.28
834.67	19038.41
834.86	19029.40
835.04	18981.48
835.22	18924.46
835.40	18913.73
835.58	18833.28
835.76	18978.94
835.95	18990.90
836.13	18884.24
836.31	18905.78
836.49	19100.67
836.67	18997.29
836.85	19015.14
837.03	18904.72
837.21	18906.36
837.40	18804.61
837.58	18668.63
837.76	18841.07
837.94	18763.65
838.12	19013.51
838.30	18829.60
838.48	18832.14
838.66	18773.81
838.85	18729.66
839.03	18737.44
839.21	18774.88
839.39	18727.28
839.57	18807.64
839.75	18723.60
839.93	18801.01
840.11	18809.20
840.29	18740.14
840.47	18778.56
840.66	18778.24
840.84	18725.56
841.02	18677.97
841.20	18702.71
841.38	18661.58
841.56	18663.22
841.74	18844.02
841.92	18604.89
842.10	18615.54
842.28	18700.41
842.46	18611.28
842.65	18560.50
842.83	18737.44
843.01	18839.51
843.19	18590.72
843.37	18697.05
843.55	18601.54
843.73	18749.07
843.91	18782.66
844.09	18709.67
844.27	18886.53
844.45	18688.94
844.63	18702.05
844.81	18728.76
844.99	18774.47
845.17	18717.62
845.35	18797.81
845.54	18705.49
845.72	18687.06
845.90	18628.00
846.08	18679.11
846.26	18562.22
846.44	18662.89
846.62	18398.46
846.80	18470.71
846.98	18405.67
847.16	18410.99
847.34	18479.48
847.52	18500.45
847.70	18498.65
847.88	18576.31
848.06	18541.98
848.24	18637.50
848.42	18652.74
848.60	18555.66
848.78	18674.03
848.96	18677.80
849.14	18660.44
849.32	18788.31
849.50	18583.43
849.68	18694.43
849.86	18694.76
850.04	18535.59
850.22	18574.91
850.40	18462.36
850.58	18590.15
850.76	18843.03
850.94	18343.41
851.12	18611.04
851.30	18468.17
851.48	18648.56
851.66	18453.84
851.84	18494.63
852.02	18507.99
852.20	18615.13
852.38	18428.85
852.56	18529.94
852.74	18558.37
852.92	18492.67
853.10	18448.35
853.28	18540.92
853.46	18254.12
853.64	18509.95
853.82	18356.85
854.00	18405.18
854.18	18305.32
854.36	18236.51
854.54	18381.75
854.72	18262.88
854.90	18222.83
855.07	18313.35
855.25	18240.19
855.43	18326.13
855.61	18259.28
855.79	18202.10
855.97	18290.49
856.15	18304.50
856.33	18226.68
856.51	18348.16
856.69	18141.81
856.87	18337.76
857.05	18221.19
857.23	18227.50
857.41	18088.64
857.59	18144.68
857.77	18064.80
857.94	18084.71
858.12	18157.13
858.30	18063.00
858.48	18028.02
858.66	17956.59
858.84	18147.05
859.02	18039.41
859.20	17980.26
859.38	18223.56
859.56	18168.10
859.74	18103.96
859.92	18186.54
860.09	18124.85
860.27	18197.10
860.45	18098.64
860.63	18094.38
860.81	18222.99
860.99	18053.91
861.17	17911.21
861.35	17704.53
861.53	17536.67
861.70	17550.60
861.88	17892.04
862.06	17899.57
862.24	17675.44
862.42	17719.35
862.60	17866.81
862.78	17893.68
862.96	17987.15
863.14	17848.21
863.31	17881.39
863.49	17796.44
863.67	17746.71
863.85	17695.92
864.03	17818.47
864.21	17791.03
864.39	17708.62
864.56	17568.30
864.74	17667.09
864.92	17600.73
865.10	17541.43
865.28	17570.34
865.46	17737.21
865.64	17394.79
865.81	17582.30
865.99	17416.09
866.17	17635.96
866.35	17549.13
866.53	17612.20
866.71	17648.74
866.88	17721.57
867.06	17530.04
867.24	17628.91
867.42	17526.19
867.60	17687.16
867.78	17514.39
867.95	17714.03
868.13	17497.76
868.31	17744.01
868.49	17635.14
868.67	17558.55
868.84	17492.52
869.02	17536.67
869.20	17179.75
869.38	17436.24
869.56	17326.47
869.73	17252.58
869.91	17353.67
870.09	17303.37
870.27	17237.43
870.45	17278.96
870.62	17094.64
870.80	17253.65
870.98	17111.93
871.16	17184.10
871.34	17155.51
871.51	17220.47
871.69	17034.68
871.87	17123.07
872.05	17065.81
872.23	17110.78
872.40	16984.13
872.58	17102.18
872.76	16955.05
872.94	17047.46
873.11	17094.80
873.29	17013.30
873.47	17054.34
873.65	16956.44
873.83	16984.87
874.00	16952.43
874.18	17057.53
874.36	16910.82
874.54	16941.94
874.71	16814.81
874.89	16682.02
875.07	16844.30
875.25	16727.32
875.42	16759.68
875.60	16730.76
875.78	16840.53
875.96	16585.60
876.13	16703.48
876.31	16428.97
876.49	16442.24
876.66	16242.44
876.84	16543.08
877.02	16330.01
877.20	16414.96
877.37	16439.78
877.55	16449.53
877.73	16406.77
877.91	16359.99
878.08	16487.62
878.26	16537.59
878.44	16458.62
878.61	16560.61
878.79	16428.56
878.97	16504.33
879.15	16623.61
879.32	16538.74
879.50	16522.36
879.68	16635.08
879.85	16413.81
880.03	16626.15
880.21	16377.69
880.38	16568.07
880.56	16416.19
880.74	16557.34
880.92	16299.87
881.09	16431.26
881.27	16310.11
881.45	16374.17
881.62	16308.38
881.80	16272.34
881.98	16176.91
882.15	16399.23
882.33	16228.27
882.51	16268.00
882.68	16133.32
882.86	16330.99
883.04	16179.53
883.21	16226.55
883.39	16401.12
883.57	16255.30
883.74	16208.69
883.92	16289.13
884.10	16251.53
884.27	16229.50
884.45	16154.46
884.63	16345.00
884.80	16258.09
884.98	16300.36
885.16	16203.20
885.33	16269.31
885.51	16244.49
885.69	16207.05
885.86	16116.69
886.04	16211.15
886.21	15986.12
886.39	16210.41
886.57	15936.64
886.74	16149.30
886.92	16135.86
887.10	16155.85
887.27	16140.45
887.45	16187.88
887.62	16190.09
887.80	16211.15
887.98	16302.81
888.15	16225.81
888.33	16175.02
888.51	16285.20
888.68	16124.80
888.86	16202.30
889.03	16109.73
889.21	16126.93
889.39	16191.24
889.56	16160.36
889.74	16103.01
889.91	16183.29
890.09	16164.78
890.27	16159.95
890.44	16147.74
890.62	16105.39
890.79	16149.63
890.97	16148.32
891.14	16085.24
891.32	16131.36
891.50	16005.78
891.67	16141.68
891.85	16096.13
892.02	16049.03
892.20	16212.46
892.38	16123.49
892.55	16052.06
892.73	16109.57
892.90	15937.95
893.08	15973.01
893.25	15952.78
893.43	16140.62
893.60	15934.84
893.78	16070.25
893.96	15898.46
894.13	16014.38
894.31	16111.78
894.48	16069.59
894.66	16024.29
894.83	16116.29
895.01	16118.17
895.18	16124.31
895.36	16047.39
895.53	16177.23
895.71	16040.51
895.89	16118.50
896.06	15977.92
896.24	16046.41
896.41	16023.55
896.59	16143.40
896.76	15906.90
896.94	15993.57
897.11	15973.66
897.29	16067.38
897.46	15842.59
897.64	15856.68
897.81	15870.45
897.99	15699.16
898.16	15817.12
898.34	15776.65
898.51	15717.50
898.69	15631.65
898.86	15697.03
899.04	15676.71
899.21	15588.56
899.39	15700.96
899.56	15571.20
899.74	15803.11
899.91	15593.32
900.09	15529.17
900.26	15638.86
900.44	15533.27
900.61	15542.20
900.79	15663.19
900.96	15511.48
901.14	15589.88
901.31	15424.07
901.49	15416.13
901.66	15434.15
901.84	15436.36
902.01	15301.69
902.19	15355.10
902.36	15243.11
902.54	15281.78
902.71	15193.31
902.88	15293.41
903.06	15076.00
903.23	15316.51
903.41	15146.94
903.58	15072.48
903.76	15006.53
903.93	15162.10
904.11	15180.12
904.28	15045.61
904.45	14996.78
904.63	14970.73
904.80	14851.21
904.98	14876.61
905.15	14771.18
905.33	14890.70
905.50	14756.76
905.68	14759.79
905.85	14660.59
906.02	14665.01
906.20	14717.60
906.37	14542.30
906.55	14425.65
906.72	14565.97
906.90	14397.88
907.07	14388.54
907.24	14448.01
907.42	14291.14
907.59	14362.98
907.77	14248.21
907.94	14197.99
908.11	14246.57
908.29	14137.70
908.46	14084.95
908.64	14011.14
908.81	14054.88
908.98	13929.63
909.16	14070.04
909.33	13924.79
909.51	13915.78
909.68	13931.02
909.85	13914.88
910.03	13859.92
910.20	13753.34
910.37	13755.80
910.55	13754.90
910.72	13640.70
910.90	13582.70
911.07	13539.37
911.24	13456.55
911.42	13571.97
911.59	13409.20
911.76	13457.69
911.94	13354.64
912.11	13323.84
912.29	13318.35
912.46	13234.79
912.63	13301.72
912.81	13102.90
912.98	13187.53
913.15	13099.63
913.33	13100.53
913.50	13023.69
913.67	12939.80
913.85	12900.89
914.02	12986.83
914.19	12885.82
914.37	12787.52
914.54	12827.74
914.71	12748.61
914.89	12751.39
915.06	12679.71
915.23	12661.94
915.41	12567.07
915.58	12529.31
915.75	12504.49
915.93	12493.59
916.10	12420.44
916.27	12409.63
916.45	12371.21
916.62	12261.76
916.79	12319.84
916.97	12226.62
917.14	12190.74
917.31	12107.92
917.49	12135.69
917.66	12077.85
917.83	12052.87
918.00	11985.45
918.18	11940.80
918.35	11952.93
918.52	11970.87
918.70	11872.24
918.87	11921.39
919.04	11908.36
919.21	11884.28
919.39	11755.18
919.56	11887.07
919.73	11727.73
919.91	11770.50
920.08	11763.86
920.25	11670.47
920.42	11701.85
920.60	11604.61
920.77	11493.94
920.94	11501.80
921.11	11352.71
921.29	11405.38
921.46	11211.24
921.63	11387.36
921.81	11250.23
921.98	11290.78
922.15	11237.61
922.32	11269.73
922.50	11147.09
922.67	11162.00
922.84	11026.84
923.01	10992.43
923.19	10972.61
923.36	11016.11
923.53	10824.17
923.70	10880.37
923.87	10853.91
924.05	10880.37
924.22	10737.42
924.39	10794.93
924.56	10666.23
924.74	10722.18
924.91	10684.25
925.08	10638.05
925.25	10603.48
925.43	10531.06
925.60	10436.94
925.77	10560.23
925.94	10500.02
926.11	10431.86
926.29	10327.50
926.46	10393.93
926.63	10330.53
926.80	10319.80
926.97	10234.93
927.15	10266.63
927.32	10163.17
927.49	10159.07
927.66	10190.69
927.83	10219.04
928.01	10093.45
928.18	10041.11
928.35	9963.61
928.52	10067.49
928.69	9930.60
928.87	9931.99
929.04	9920.61
929.21	9932.98
929.38	9846.06
929.55	9893.49
929.72	9790.85
929.90	9804.69
930.07	9749.07
930.24	9703.52
930.41	9688.78
930.58	9656.25
930.75	9663.55
930.93	9632.50
931.10	9554.35
931.27	9461.78
931.44	9448.10
931.61	9384.28
931.78	9414.02
931.95	9389.85
932.13	9301.87
932.30	9376.99
932.47	9281.97
932.64	9290.24
932.81	9267.55
932.98	9279.18
933.15	9244.94
933.33	9155.65
933.50	9181.37
933.67	9130.09
933.84	9130.75
934.01	9092.49
934.18	9068.16
934.35	9046.86
934.52	9019.09
934.70	9012.78
934.87	8983.54
935.04	8957.08
935.21	8929.72
935.38	8901.62
935.55	8833.54
935.72	8913.82
935.89	8808.72
936.06	8826.09
936.24	8733.60
936.41	8830.68
936.58	8711.40
936.75	8712.71
936.92	8683.14
937.09	8703.05
937.26	8641.94
937.43	8673.39
937.60	8600.16
937.77	8593.69
937.94	8557.72
938.12	8596.39
938.29	8523.32
938.46	8504.31
938.63	8418.22
938.80	8452.79
938.97	8371.44
939.14	8343.75
939.31	8288.05
939.48	8296.73
939.65	8226.28
939.82	8257.98
939.99	8242.50
940.16	8250.86
940.33	8194.17
940.50	8157.88
940.67	8127.90
940.85	8156.98
941.02	8094.23
941.19	8118.89
941.36	8077.68
941.53	8096.11
941.70	8102.26
941.87	8069.49
942.04	8065.31
942.21	8040.98
942.38	8023.86
942.55	7966.84
942.72	7984.78
942.89	7935.39
943.06	7907.70
943.23	7877.96
943.40	7835.36
943.57	7853.30
943.74	7873.05
943.91	7848.96
944.08	7791.54
944.25	7818.74
944.42	7717.32
944.59	7728.21
944.76	7741.90
944.93	7678.24
945.10	7630.08
945.27	7618.03
945.44	7534.31
945.61	7583.55
945.78	7491.96
945.95	7509.82
946.12	7462.06
946.29	7475.09
946.46	7439.70
946.63	7455.10
946.80	7449.04
946.97	7435.60
947.14	7362.12
947.31	7435.11
947.48	7354.67
947.65	7329.93
947.82	7330.42
947.99	7326.24
948.16	7296.58
948.33	7287.08
948.50	7246.86
948.67	7226.95
948.84	7219.66
949.01	7183.62
949.18	7198.45
949.35	7200.49
949.52	7110.79
949.68	7143.56
949.85	7111.61
950.02	7103.67
950.19	7062.87
950.36	7058.04
950.53	7021.26
950.70	7008.80
950.87	6967.44
951.04	7041.74
951.21	6962.11
951.38	6909.93
951.55	6913.45
951.72	6894.20
951.89	6898.62
952.06	6927.62
952.23	6899.12
952.39	6889.04
952.56	6843.41
952.73	6883.96
952.90	6836.28
953.07	6898.05
953.24	6784.27
953.41	6832.84
953.58	6743.31
953.75	6791.97
953.92	6743.63
954.09	6728.15
954.25	6693.42
954.42	6717.83
954.59	6674.25
954.76	6633.45
954.93	6634.11
955.10	6611.99
955.27	6594.13
955.44	6591.92
955.61	6580.21
955.77	6592.74
955.94	6547.93
956.11	6558.66
956.28	6564.31
956.45	6526.55
956.62	6554.65
956.79	6535.07
956.96	6523.44
957.12	6479.28
957.29	6476.09
957.46	6457.33
957.63	6435.95
957.80	6386.96
957.97	6393.35
958.14	6437.26
958.30	6321.67
958.47	6349.19
958.64	6316.43
958.81	6319.21
958.98	6306.76
959.15	6289.15
959.32	6319.05
959.48	6295.21
959.65	6235.57
959.82	6298.65
959.99	6251.79
960.16	6276.37
960.33	6257.36
960.49	6226.40
960.66	6217.31
960.83	6215.34
961.00	6172.09
961.17	6143.66
961.33	6161.03
961.50	6117.36
961.67	6095.49
961.84	6108.52
962.01	6082.71
962.18	6100.74
962.34	6043.72
962.51	6067.72
962.68	5991.21
962.85	6064.69
963.02	5983.35
963.18	5999.65
963.35	5956.15
963.52	5952.79
963.69	5960.41
963.86	5946.15
964.02	5941.24
964.19	5939.27
964.36	5894.79
964.53	5908.72
964.69	5856.29
964.86	5934.77
965.03	5864.48
965.20	5910.60
965.37	5834.42
965.53	5848.92
965.70	5813.69
965.87	5856.21
966.04	5786.66
966.20	5802.39
966.37	5776.34
966.54	5751.68
966.71	5787.23
966.87	5739.47
967.04	5702.77
967.21	5707.53
967.38	5696.06
967.54	5694.66
967.71	5695.24
967.88	5672.71
968.05	5647.23
968.21	5637.57
968.38	5615.12
968.55	5622.58
968.72	5608.16
968.88	5541.72
969.05	5594.97
969.22	5537.54
969.39	5557.78
969.55	5565.56
969.72	5529.35
969.89	5527.88
970.05	5533.04
970.22	5520.59
970.39	5522.39
970.56	5563.92
970.72	5497.16
970.89	5525.83
971.06	5504.61
971.22	5498.47
971.39	5473.65
971.56	5489.95
971.73	5438.34
971.89	5492.32
972.06	5444.24
972.23	5463.24
972.39	5421.30
972.56	5440.06
972.73	5397.87
972.89	5397.46
973.06	5426.13
973.23	5404.92
973.39	5370.27
973.56	5382.96
973.73	5366.74
973.89	5359.86
974.06	5359.53
974.23	5333.48
974.39	5327.67
974.56	5292.93
974.73	5307.68
974.89	5256.07
975.06	5240.42
975.23	5300.39
975.39	5203.97
975.56	5237.72
975.73	5240.01
975.89	5210.20
976.06	5220.93
976.23	5193.24
976.39	5208.23
976.56	5189.47
976.73	5177.92
976.89	5172.68
977.06	5157.11
977.23	5136.06
977.39	5141.71
977.56	5154.57
977.72	5091.25
977.89	5134.83
978.06	5109.85
978.22	5108.70
978.39	5100.34
978.56	5085.68
978.72	5077.08
978.89	5084.61
979.05	5077.00
979.22	5064.79
979.39	5038.58
979.55	5036.86
979.72	5017.93
979.88	5046.60
980.05	4997.21
980.22	5035.05
980.38	4996.80
980.55	4989.67
980.71	4952.07
980.88	4971.73
981.05	4974.43
981.21	4960.10
981.38	4968.62
981.54	4951.17
981.71	4944.78
981.88	4916.19
982.04	4915.21
982.21	4921.76
982.37	4895.63
982.54	4897.76
982.70	4867.94
982.87	4891.20
983.04	4871.71
983.20	4895.46
983.37	4847.95
983.53	4880.39
983.70	4873.51
983.86	4873.76
984.03	4837.63
984.20	4861.55
984.36	4836.24
984.53	4831.73
984.69	4805.03
984.86	4765.71
985.02	4814.53
985.19	4772.75
985.35	4772.18
985.52	4772.09
985.68	4741.38
985.85	4758.41
986.02	4749.89
986.18	4750.88
986.35	4753.34
986.51	4756.86
986.68	4751.45
986.84	4731.63
987.01	4716.06
987.17	4739.66
987.34	4739.00
987.50	4716.14
987.67	4684.11
987.83	4701.81
988.00	4654.62
988.16	4675.10
988.33	4671.50
988.49	4671.42
988.66	4639.06
988.82	4668.88
988.99	4638.65
989.15	4658.06
989.32	4597.53
989.48	4631.36
989.65	4589.66
989.81	4614.97
989.98	4597.94
990.14	4543.30
990.31	4573.44
990.47	4579.67
990.64	4559.43
990.80	4548.95
990.97	4546.00
991.13	4538.87
991.30	4550.91
991.46	4519.95
991.63	4510.20
991.79	4528.63
991.95	4472.11
992.12	4517.74
992.28	4477.68
992.45	4483.41
992.61	4498.16
992.78	4484.23
992.94	4445.98
993.11	4499.88
993.27	4469.24
993.44	4482.35
993.60	4459.49
993.76	4486.69
993.93	4479.07
994.09	4465.80
994.26	4461.87
994.42	4443.19
994.59	4408.79
994.75	4473.01
994.91	4435.24
995.08	4393.63
995.24	4391.50
995.41	4410.18
995.57	4407.72
995.74	4394.94
995.90	4373.31
996.06	4390.03
996.23	4378.48
996.39	4360.04
996.56	4327.85
996.72	4345.71
996.88	4367.66
997.05	4379.70
997.21	4329.98
997.38	4344.23
997.54	4309.42
997.70	4325.39
997.87	4330.31
998.03	4315.81
998.20	4299.26
998.36	4307.94
998.52	4273.13
998.69	4321.79
998.85	4260.68
999.02	4288.94
999.18	4255.19
999.34	4295.49
999.51	4281.07
999.67	4276.65
999.83	4239.21
1000.00	4269.93
1000.16	4235.77
1000.33	4267.31
1000.49	4236.10
1000.65	4258.55
1000.82	4235.20
1000.98	4233.72
1001.14	4224.71
1001.31	4232.41
1001.47	4217.01
1001.63	4246.34
1001.80	4196.94
1001.96	4185.80
1002.12	4204.48
1002.29	4216.28
1002.45	4185.47
1002.61	4161.55
1002.78	4167.94
1002.94	4193.18
1003.10	4168.03
1003.27	4168.85
1003.43	4119.61
1003.59	4148.69
1003.76	4138.29
1003.92	4131.90
1004.08	4119.61
1004.25	4151.48
1004.41	4125.92
1004.57	4120.43
1004.74	4107.98
1004.90	4136.08
1005.06	4098.56
1005.23	4117.56
1005.39	4098.31
1005.55	4105.36
1005.71	4083.08
1005.88	4096.27
1006.04	4074.64
1006.20	4097.58
1006.37	4063.50
1006.53	4067.10
1006.69	4047.52
1006.85	4078.65
1007.02	4046.95
1007.18	4059.57
1007.34	4033.11
1007.51	4065.30
1007.67	4040.48
1007.83	4025.24
1007.99	4008.04
1008.16	4045.80
1008.32	4005.74
1008.48	4037.28
1008.64	3987.07
1008.81	4020.00
1008.97	3980.19
1009.13	3995.42
1009.29	3984.94
1009.46	3992.15
1009.62	3993.29
1009.78	3974.62
1009.95	3984.69
1010.11	3978.63
1010.27	3947.75
1010.43	3955.45
1010.59	3978.96
1010.76	3964.13
1010.92	3949.79
1011.08	3959.30
1011.24	3940.37
1011.41	3982.07
1011.57	3949.88
1011.73	3951.19
1011.89	3920.30
1012.06	3943.81
1012.22	3920.55
1012.38	3918.34
1012.54	3933.66
1012.70	3901.46
1012.87	3901.95
1013.03	3921.12
1013.19	3908.84
1013.35	3898.02
1013.51	3873.04
1013.68	3906.79
1013.84	3879.51
1014.00	3887.29
1014.16	3857.06
1014.32	3857.06
1014.49	3858.13
1014.65	3894.42
1014.81	3840.84
1014.97	3866.07
1015.13	3841.58
1015.30	3858.05
1015.46	3845.10
1015.62	3843.63
1015.78	3846.41
1015.94	3867.71
1016.10	3839.04
1016.27	3838.14
1016.43	3824.13
1016.59	3853.21
1016.75	3828.55
1016.91	3824.62
1017.07	3808.48
1017.24	3822.08
1017.40	3792.51
1017.56	3814.96
1017.72	3786.37
1017.88	3804.80
1018.04	3784.48
1018.21	3814.96
1018.37	3779.73
1018.53	3803.90
1018.69	3776.86
1018.85	3784.81
1019.01	3784.48
1019.17	3786.69
1019.34	3788.09
1019.50	3772.19
1019.66	3743.20
1019.82	3749.67
1019.98	3745.00
1020.14	3776.04
1020.30	3755.40
1020.46	3746.96
1020.63	3741.88
1020.79	3749.18
1020.95	3732.22
1021.11	3728.53
1021.27	3718.62
1021.43	3707.31
1021.59	3727.96
1021.75	3710.51
1021.91	3692.73
1022.07	3709.36
1022.24	3694.13
1022.40	3704.69
1022.56	3678.23
1022.72	3708.63
1022.88	3675.20
1023.04	3689.78
1023.20	3681.35
1023.36	3685.28
1023.52	3677.50
1023.68	3697.24
1023.84	3666.85
1024.01	3682.74
1024.17	3666.27
1024.33	3686.67
1024.49	3680.45
1024.65	3659.06
1024.81	3655.95
1024.97	3670.62
1025.13	3637.77
1025.29	3645.14
1025.45	3642.27
1025.61	3679.22
1025.77	3652.92
1025.93	3656.53
1026.09	3621.46
1026.25	3672.34
1026.41	3640.80
1026.57	3626.79
1026.73	3641.37
1026.90	3629.57
1027.06	3630.31
1027.22	3659.31
1027.38	3646.78
1027.54	3644.57
1027.70	3626.05
1027.86	3637.85
1028.02	3614.26
1028.18	3603.77
1028.34	3616.63
1028.50	3625.72
1028.66	3603.28
1028.82	3624.58
1028.98	3605.08
1029.14	3593.12
1029.30	3592.71
1029.46	3601.64
1029.62	3606.47
1029.78	3575.02
1029.94	3579.36
1030.10	3582.23
1030.26	3556.58
1030.42	3577.64
1030.58	3582.39
1030.74	3586.98
1030.90	3530.21
1031.06	3568.38
1031.22	3558.88
1031.38	3561.91
1031.54	3560.84
1031.70	3564.78
1031.86	3556.67
1032.02	3557.57
1032.18	3533.32
1032.34	3548.47
1032.50	3538.89
1032.66	3560.19
1032.82	3518.16
1032.98	3540.86
1033.14	3533.57
1033.30	3538.40
1033.45	3516.94
1033.61	3537.91
1033.77	3509.97
1033.93	3535.37
1034.09	3516.94
1034.25	3543.56
1034.41	3525.86
1034.57	3512.76
1034.73	3518.66
1034.89	3530.45
1035.05	3491.54
1035.21	3502.85
1035.37	3506.94
1035.53	3502.35
1035.69	3501.86
1035.85	3529.22
1036.01	3490.39
1036.16	3511.37
1036.32	3502.35
1036.48	3489.57
1036.64	3470.65
1036.80	3504.40
1036.96	3477.94
1037.12	3478.19
1037.28	3475.89
1037.44	3471.14
1037.60	3478.93
1037.76	3463.20
1037.91	3470.41
1038.07	3464.26
1038.23	3463.20
1038.39	3469.42
1038.55	3460.82
1038.71	3471.47
1038.87	3471.14
1039.03	3495.31
1039.19	3452.38
1039.35	3460.08
1039.50	3456.48
1039.66	3472.54
1039.82	3449.60
1039.98	3445.83
1040.14	3444.60
1040.30	3443.13
1040.46	3428.14
1040.62	3427.97
1040.77	3428.30
1040.93	3455.91
1041.09	3433.46
1041.25	3439.03
1041.41	3433.79
1041.57	3423.63
1041.73	3423.63
1041.88	3423.63

