SpectraSuite Data File
++++++++++++++++++++++++++++++++++++
Date: Tue Sep 20 12:05:21 EDT 2022
User: Laboratoire
Dark Spectrum Present: No
Reference Spectrum Present: No
Number of Sampled Component Spectra: 1
Spectrometers: FLMT00174
Integration Time (usec): 15000 (FLMT00174)
Spectra Averaged: 25 (FLMT00174)
Boxcar Smoothing: 0 (FLMT00174)
Correct for Electrical Dark: No (FLMT00174)
Strobe/Lamp Enabled: No (FLMT00174)
Correct for Detector Non-linearity: No (FLMT00174)
Correct for Stray Light: No (FLMT00174)
Number of Pixels in Processed Spectrum: 3648
>>>>>Begin Processed Spectral Data<<<<<
345.74	3179.51
345.96	3179.51
346.18	3179.51
346.39	3177.22
346.61	3202.94
346.83	3223.99
347.05	3217.69
347.27	3213.43
347.49	3222.77
347.71	3218.34
347.93	3222.52
348.15	3234.81
348.36	3223.83
348.58	3236.53
348.80	3224.81
349.02	3222.52
349.24	3223.67
349.46	3291.74
349.68	3311.07
349.90	3322.46
350.11	3319.92
350.33	3321.81
350.55	3305.99
350.77	3333.77
350.99	3312.14
351.21	3339.25
351.43	3304.52
351.65	3341.06
351.86	3311.32
352.08	3339.34
352.30	3305.83
352.52	3334.26
352.74	3310.58
352.96	3307.80
353.18	3329.42
353.39	3316.97
353.61	3316.07
353.83	3332.45
354.05	3314.51
354.27	3336.63
354.49	3322.71
354.70	3318.20
354.92	3303.95
355.14	3321.72
355.36	3325.16
355.58	3321.23
355.80	3324.26
356.02	3337.21
356.23	3315.50
356.45	3336.14
356.67	3327.62
356.89	3337.78
357.11	3320.17
357.33	3338.35
357.54	3294.69
357.76	3322.95
357.98	3300.59
358.20	3334.75
358.42	3314.51
358.63	3321.56
358.85	3324.10
359.07	3326.97
359.29	3312.22
359.51	3309.44
359.73	3310.25
359.94	3342.78
360.16	3327.95
360.38	3322.21
360.60	3285.68
360.82	3339.58
361.03	3335.57
361.25	3336.80
361.47	3340.40
361.69	3336.71
361.91	3320.25
362.12	3339.91
362.34	3315.58
362.56	3337.70
362.78	3320.41
363.00	3350.39
363.21	3323.69
363.43	3340.65
363.65	3304.11
363.87	3323.12
364.09	3340.65
364.30	3318.28
364.52	3325.25
364.74	3344.17
364.96	3325.90
365.17	3337.21
365.39	3334.34
365.61	3329.67
365.83	3328.60
366.05	3331.47
366.26	3308.21
366.48	3325.25
366.70	3332.95
366.92	3344.09
367.13	3336.22
367.35	3336.30
367.57	3348.18
367.79	3326.31
368.01	3344.66
368.22	3347.94
368.44	3330.24
368.66	3333.03
368.88	3332.62
369.09	3335.81
369.31	3342.45
369.53	3341.06
369.75	3319.27
369.96	3342.94
370.18	3322.95
370.40	3353.75
370.62	3330.41
370.83	3336.80
371.05	3368.50
371.27	3346.14
371.49	3331.96
371.70	3337.53
371.92	3333.11
372.14	3356.29
372.36	3331.31
372.57	3365.80
372.79	3368.34
373.01	3343.68
373.22	3339.50
373.44	3335.40
373.66	3337.62
373.88	3353.10
374.09	3334.83
374.31	3347.28
374.53	3332.78
374.75	3359.32
374.96	3346.14
375.18	3355.31
375.40	3352.36
375.61	3349.74
375.83	3340.16
376.05	3353.10
376.27	3354.65
376.48	3351.30
376.70	3353.51
376.92	3361.21
377.13	3356.54
377.35	3333.36
377.57	3354.00
377.79	3358.26
378.00	3346.14
378.22	3361.29
378.44	3338.84
378.65	3372.76
378.87	3346.95
379.09	3371.45
379.30	3343.76
379.52	3365.14
379.74	3368.66
379.96	3359.41
380.17	3357.44
380.39	3353.59
380.61	3360.55
380.82	3356.46
381.04	3348.35
381.26	3362.27
381.47	3356.29
381.69	3390.45
381.91	3367.19
382.12	3371.94
382.34	3379.97
382.56	3369.40
382.77	3373.41
382.99	3385.46
383.21	3374.97
383.42	3386.77
383.64	3365.30
383.86	3390.62
384.07	3378.49
384.29	3369.97
384.51	3366.86
384.72	3380.05
384.94	3378.33
385.16	3380.13
385.37	3379.97
385.59	3386.03
385.81	3378.49
386.02	3383.82
386.24	3396.35
386.46	3397.99
386.67	3419.12
386.89	3417.73
387.11	3425.19
387.32	3416.59
387.54	3416.01
387.76	3421.83
387.97	3427.48
388.19	3432.64
388.40	3445.83
388.62	3433.46
388.84	3448.70
389.05	3445.91
389.27	3438.29
389.49	3463.12
389.70	3448.45
389.92	3459.43
390.14	3463.28
390.35	3458.28
390.57	3465.65
390.78	3464.92
391.00	3460.74
391.22	3477.45
391.43	3461.97
391.65	3488.84
391.86	3490.56
392.08	3506.70
392.30	3494.74
392.51	3491.62
392.73	3515.87
392.95	3485.23
393.16	3502.27
393.38	3501.29
393.59	3507.11
393.81	3512.27
394.03	3509.15
394.24	3503.34
394.46	3496.05
394.67	3523.82
394.89	3492.85
395.11	3539.71
395.32	3539.71
395.54	3534.96
395.75	3533.97
395.97	3509.40
396.19	3522.83
396.40	3538.32
396.62	3540.69
396.83	3545.61
397.05	3543.81
397.26	3547.49
397.48	3542.49
397.70	3562.97
397.91	3561.50
398.13	3549.38
398.34	3561.09
398.56	3560.84
398.78	3547.08
398.99	3588.86
399.21	3543.31
399.42	3582.06
399.64	3553.64
399.85	3558.14
400.07	3565.92
400.29	3570.67
400.50	3564.61
400.72	3597.54
400.93	3590.01
401.15	3585.67
401.36	3567.40
401.58	3611.31
401.79	3613.03
402.01	3611.72
402.23	3623.59
402.44	3626.87
402.66	3625.48
402.87	3647.35
403.09	3627.28
403.30	3628.84
403.52	3634.08
403.73	3623.51
403.95	3649.97
404.16	3689.87
404.38	3670.29
404.60	3678.56
404.81	3693.31
405.03	3701.09
405.24	3718.21
405.46	3708.79
405.67	3728.29
405.89	3722.96
406.10	3730.09
406.32	3751.06
406.53	3783.66
406.75	3799.15
406.96	3771.38
407.18	3788.00
407.39	3778.26
407.61	3812.83
407.82	3800.13
408.04	3827.33
408.25	3846.58
408.47	3867.88
408.68	3875.58
408.90	3876.97
409.12	3912.03
409.33	3918.58
409.55	3923.74
409.76	3935.38
409.98	3936.52
410.19	3971.50
410.41	3990.59
410.62	4002.55
410.84	3976.50
411.05	4025.82
411.27	4031.14
411.48	4049.16
411.70	4052.36
411.91	4083.24
412.12	4064.89
412.34	4081.19
412.55	4119.20
412.77	4097.82
412.98	4118.55
413.20	4095.69
413.41	4137.63
413.63	4127.97
413.84	4152.22
414.06	4177.77
414.27	4146.65
414.49	4180.40
414.70	4178.92
414.92	4175.97
415.13	4161.47
415.35	4195.88
415.56	4183.67
415.78	4216.19
415.99	4220.86
416.21	4229.71
416.42	4234.05
416.63	4224.88
416.85	4240.77
417.06	4210.62
417.28	4180.23
417.49	4237.17
417.71	4250.76
417.92	4234.95
418.14	4234.71
418.35	4247.24
418.57	4262.40
418.78	4234.87
418.99	4257.81
419.21	4235.85
419.42	4231.76
419.64	4217.34
419.85	4247.90
420.07	4288.69
420.28	4249.62
420.50	4242.41
420.71	4268.38
420.92	4245.03
421.14	4288.77
421.35	4255.92
421.57	4270.51
421.78	4282.55
422.00	4281.81
422.21	4293.03
422.42	4306.96
422.64	4263.54
422.85	4319.58
423.07	4313.76
423.28	4321.13
423.50	4311.06
423.71	4358.16
423.92	4362.17
424.14	4334.98
424.35	4361.52
424.57	4367.33
424.78	4411.08
424.99	4414.27
425.21	4398.95
425.42	4404.44
425.64	4418.04
425.85	4456.87
426.06	4448.52
426.28	4457.44
426.49	4485.54
426.71	4482.59
426.92	4501.35
427.13	4541.90
427.35	4541.82
427.56	4578.28
427.78	4564.76
427.99	4608.99
428.20	4625.95
428.42	4647.25
428.63	4662.57
428.84	4643.32
429.06	4696.16
429.27	4721.71
429.49	4725.32
429.70	4802.24
429.91	4775.04
430.13	4825.92
430.34	4824.03
430.56	4842.30
430.77	4910.87
430.98	4892.60
431.20	4920.86
431.41	4986.07
431.62	5012.94
431.84	4998.52
432.05	5058.73
432.26	5060.53
432.48	5069.05
432.69	5165.30
432.91	5162.03
433.12	5193.57
433.33	5234.61
433.55	5310.30
433.76	5313.33
433.97	5300.14
434.19	5363.30
434.40	5415.08
434.61	5458.33
434.83	5516.90
435.04	5509.04
435.25	5573.51
435.47	5594.64
435.68	5575.14
435.89	5705.07
436.11	5688.77
436.32	5745.04
436.53	5748.40
436.75	5772.24
436.96	5828.76
437.17	5814.67
437.39	5860.39
437.60	5923.63
437.81	5955.49
438.03	6008.08
438.24	6058.55
438.45	6080.83
438.67	6095.41
438.88	6140.71
439.09	6231.72
439.31	6218.04
439.52	6259.00
439.73	6249.01
439.94	6209.11
440.16	6293.74
440.37	6265.06
440.58	6359.84
440.80	6379.42
441.01	6344.77
441.22	6511.64
441.44	6457.41
441.65	6445.69
441.86	6452.66
442.08	6503.37
442.29	6492.22
442.50	6543.75
442.71	6509.02
442.93	6535.23
443.14	6531.05
443.35	6581.52
443.57	6507.05
443.78	6595.77
443.99	6624.03
444.20	6555.63
444.42	6593.72
444.63	6593.23
444.84	6618.38
445.06	6645.25
445.27	6586.92
445.48	6561.69
445.69	6614.37
445.91	6604.70
446.12	6544.00
446.33	6603.63
446.54	6665.73
446.76	6563.25
446.97	6618.38
447.18	6564.31
447.39	6600.60
447.61	6635.17
447.82	6635.99
448.03	6618.13
448.25	6645.58
448.46	6652.29
448.67	6660.40
448.88	6636.32
449.10	6671.38
449.31	6694.89
449.52	6648.03
449.73	6659.09
449.95	6730.53
450.16	6641.48
450.37	6707.92
450.58	6825.39
450.79	6682.77
451.01	6724.30
451.22	6678.26
451.43	6701.36
451.64	6740.44
451.86	6730.61
452.07	6759.44
452.28	6814.08
452.49	6854.72
452.71	6767.64
452.92	6767.55
453.13	6821.62
453.34	6847.75
453.55	6923.36
453.77	6941.22
453.98	6964.49
454.19	6863.23
454.40	6946.38
454.62	6987.42
454.83	6902.31
455.04	7039.44
455.25	6925.41
455.46	7198.53
455.68	7063.36
455.89	7079.25
456.10	7070.16
456.31	7139.96
456.52	7183.21
456.74	7200.90
456.95	7356.55
457.16	7290.03
457.37	7358.76
457.58	7373.02
457.80	7366.95
458.01	7391.86
458.22	7645.64
458.43	7519.65
458.64	7592.64
458.86	7516.05
459.07	7629.18
459.28	7617.30
459.49	7766.47
459.70	7922.03
459.91	7876.41
460.13	7882.22
460.34	7965.94
460.55	7942.68
460.76	8098.57
460.97	8125.60
461.19	8136.91
461.40	8379.47
461.61	8305.09
461.82	8388.48
462.03	8469.50
462.24	8478.67
462.46	8505.05
462.67	8575.09
462.88	8704.36
463.09	8736.31
463.30	8922.51
463.51	8798.07
463.72	9048.34
463.94	9147.95
464.15	9147.46
464.36	9136.15
464.57	9440.23
464.78	9454.82
464.99	9488.32
465.20	9496.27
465.42	9749.40
465.63	9762.34
465.84	9828.86
466.05	9975.82
466.26	10093.95
466.47	10257.78
466.68	10218.46
466.90	10418.51
467.11	10436.53
467.32	10581.36
467.53	10759.13
467.74	10636.90
467.95	10807.13
468.16	11051.82
468.37	11176.58
468.59	11229.26
468.80	11459.53
469.01	11365.74
469.22	11603.46
469.43	11918.52
469.64	11769.84
469.85	11976.52
470.06	12121.52
470.28	12269.54
470.49	12100.55
470.70	12403.32
470.91	12687.41
471.12	12621.06
471.33	12908.43
471.54	12846.50
471.75	12923.01
471.96	13327.69
472.17	13267.56
472.39	13704.35
472.60	13423.04
472.81	13770.95
473.02	13765.14
473.23	14016.38
473.44	14152.37
473.65	14083.23
473.86	14267.30
474.07	14354.70
474.28	14414.01
474.49	14813.04
474.71	14749.96
474.92	14993.75
475.13	14875.95
475.34	14953.45
475.55	15062.48
475.76	15152.51
475.97	15547.03
476.18	15473.31
476.39	15715.46
476.60	15855.37
476.81	15896.99
477.02	16068.85
477.23	16034.45
477.44	15998.98
477.65	16218.77
477.87	16390.88
478.08	16385.06
478.29	16423.48
478.50	16774.42
478.71	16601.98
478.92	16760.74
479.13	16776.96
479.34	16826.68
479.55	16975.94
479.76	16851.67
479.97	16944.07
480.18	17355.22
480.39	17028.12
480.60	17327.45
480.81	17372.26
481.02	17385.78
481.23	17405.11
481.44	17612.37
481.65	17714.77
481.86	17910.55
482.07	17538.89
482.28	18171.22
482.49	17855.26
482.71	17911.45
482.92	17987.64
483.13	18208.41
483.34	18010.00
483.55	18109.70
483.76	18101.67
483.97	18330.22
484.18	18198.99
484.39	18306.22
484.60	18242.57
484.81	18576.88
485.02	18340.79
485.23	18578.68
485.44	18618.82
485.65	18717.62
485.86	18552.79
486.07	18800.60
486.28	18763.65
486.49	18874.41
486.70	18956.41
486.91	19124.10
487.12	18915.29
487.33	18886.53
487.54	19237.72
487.75	19169.72
487.96	19245.25
488.17	19176.36
488.38	19394.35
488.59	19333.56
488.80	19403.28
489.01	19413.51
489.22	19666.23
489.43	19577.68
489.64	19441.94
489.85	19796.24
490.06	19524.51
490.26	19828.11
490.47	19694.58
490.68	19975.31
490.89	20166.27
491.10	19863.17
491.31	20238.68
491.52	20327.65
491.73	20261.21
491.94	20240.24
492.15	20397.03
492.36	20494.92
492.57	20514.99
492.78	20520.56
492.99	20702.34
493.20	20911.07
493.41	20879.61
493.62	20970.54
493.83	20964.24
494.04	21159.53
494.25	21326.32
494.46	21327.46
494.67	21222.12
494.88	21472.22
495.08	21562.08
495.29	21657.60
495.50	21816.11
495.71	21845.93
495.92	22051.30
496.13	22089.55
496.34	22007.88
496.55	22231.52
496.76	22574.27
496.97	22274.77
497.18	22692.97
497.39	22560.42
497.60	23055.70
497.81	22879.33
498.02	23145.73
498.22	22952.81
498.43	23410.49
498.64	23574.33
498.85	23521.90
499.06	23706.47
499.27	24122.78
499.48	23622.34
499.69	24117.86
499.90	24236.97
500.11	24516.15
500.32	24860.95
500.52	24672.13
500.73	25209.18
500.94	25252.36
501.15	25406.61
501.36	25508.43
501.57	25461.17
501.78	25729.45
501.99	26026.00
502.20	26115.78
502.41	26312.38
502.61	26370.71
502.82	26827.74
503.03	26659.64
503.24	27220.62
503.45	27061.61
503.66	27566.40
503.87	27544.11
504.08	27954.28
504.28	27908.90
504.49	28218.72
504.70	28412.13
504.91	28717.52
505.12	28656.65
505.33	29226.97
505.54	29354.27
505.75	29449.14
505.95	29808.51
506.16	29790.33
506.37	29894.04
506.58	30486.72
506.79	30155.19
507.00	30847.82
507.21	30798.34
507.41	30953.57
507.62	31219.15
507.83	31910.38
508.04	31661.51
508.25	32260.01
508.46	32157.78
508.67	32755.13
508.87	32616.36
509.08	33182.09
509.29	33105.58
509.50	33511.08
509.71	33822.12
509.92	34125.14
510.12	34061.41
510.33	34343.29
510.54	34374.99
510.75	34836.52
510.96	35155.51
511.17	35510.39
511.37	35558.14
511.58	35966.51
511.79	35751.14
512.00	35936.12
512.21	36494.07
512.42	36671.99
512.62	36929.30
512.83	37371.01
513.04	37265.17
513.25	37697.21
513.46	37035.63
513.66	38274.24
513.87	37980.65
514.08	38479.04
514.29	38351.98
514.50	38540.81
514.71	38984.48
514.91	38806.22
515.12	38958.92
515.33	39357.37
515.54	39328.45
515.75	39880.34
515.95	39696.43
516.16	39761.89
516.37	40373.25
516.58	40466.22
516.78	40269.95
516.99	40689.94
517.20	40701.33
517.41	40746.30
517.62	41032.86
517.82	40872.70
518.03	41611.45
518.24	42005.31
518.45	41296.88
518.66	41695.17
518.86	41561.23
519.07	42071.50
519.28	41370.93
519.49	42146.79
519.69	42195.69
519.90	42266.31
520.11	42374.52
520.32	42253.69
520.52	42636.17
520.73	42203.31
520.94	42825.24
521.15	42656.98
521.36	42092.64
521.56	42938.70
521.77	42205.52
521.98	42819.50
522.19	42327.91
522.39	42629.04
522.60	42379.44
522.81	42553.27
523.02	42274.33
523.22	42584.32
523.43	42744.14
523.64	42507.15
523.84	42476.18
524.05	42871.85
524.26	42651.00
524.47	42364.61
524.67	42400.33
524.88	42516.00
525.09	42804.76
525.30	42345.44
525.50	42235.75
525.71	42240.09
525.92	42187.91
526.13	42398.61
526.33	42068.80
526.54	41743.58
526.75	41920.12
526.95	42264.01
527.16	41394.20
527.37	41961.98
527.58	41958.78
527.78	41721.47
527.99	41930.44
528.20	41900.13
528.40	41420.09
528.61	41194.56
528.82	41565.90
529.03	41324.40
529.23	41119.44
529.44	41405.01
529.65	41250.27
529.85	41107.48
530.06	40973.38
530.27	40942.91
530.47	40365.38
530.68	41194.48
530.89	40240.21
531.09	40831.91
531.30	40608.52
531.51	40222.84
531.72	40612.94
531.92	40533.64
532.13	40668.89
532.34	40282.81
532.54	40189.09
532.75	40186.39
532.96	39902.21
533.16	40132.41
533.37	40123.15
533.58	39671.28
533.78	40037.38
533.99	40023.86
534.20	39535.55
534.40	39709.62
534.61	39798.18
534.82	39717.65
535.02	39705.12
535.23	39599.61
535.44	39687.50
535.64	39587.65
535.85	39578.63
536.06	39509.74
536.26	39415.62
536.47	39360.32
536.68	39805.88
536.88	39182.07
537.09	39631.80
537.29	39048.54
537.50	39704.05
537.71	39190.09
537.91	39235.15
538.12	39361.22
538.33	39110.14
538.53	39232.04
538.74	39265.87
538.95	39258.82
539.15	39052.88
539.36	39267.18
539.56	39484.92
539.77	39034.45
539.98	39094.74
540.18	39348.52
540.39	38984.31
540.60	39250.22
540.80	39428.64
541.01	39343.86
541.21	39321.08
541.42	39500.65
541.63	39230.89
541.83	39521.95
542.04	39467.14
542.25	39467.63
542.45	39602.31
542.66	39593.54
542.86	39744.03
543.07	38912.23
543.28	39791.71
543.48	39612.71
543.69	39828.98
543.89	39583.30
544.10	40178.20
544.31	40084.07
544.51	39850.77
544.72	39949.40
544.92	39965.21
545.13	40340.56
545.33	40171.15
545.54	40106.36
545.75	40358.83
545.95	40172.87
546.16	40267.73
546.36	40787.18
546.57	40152.56
546.78	39575.11
546.98	40130.77
547.19	39557.83
547.39	40486.38
547.60	40785.87
547.80	41336.61
548.01	41450.97
548.22	41220.94
548.42	41396.33
548.63	41706.23
548.83	41563.77
549.04	41869.25
549.24	41536.66
549.45	41851.22
549.65	42234.44
549.86	41726.05
550.07	41993.11
550.27	42402.70
550.48	42575.06
550.68	42526.15
550.89	42587.51
551.09	42896.26
551.30	42808.69
551.50	43242.37
551.71	43124.16
551.91	43225.74
552.12	43454.87
552.33	43864.87
552.53	43459.29
552.74	44194.43
552.94	44346.31
553.15	44116.03
553.35	44554.05
553.56	44230.96
553.76	44878.86
553.97	44710.19
554.17	45036.96
554.38	45686.25
554.58	45249.46
554.79	45923.32
554.99	45576.48
555.20	45749.08
555.40	46370.93
555.61	46244.53
555.81	46079.87
556.02	47123.76
556.22	46856.21
556.43	46816.98
556.63	47109.51
556.84	47177.01
557.04	47874.55
557.25	47425.55
557.45	48048.71
557.66	48133.74
557.86	48200.50
558.07	48798.34
558.27	48523.59
558.48	48760.01
558.68	48858.88
558.89	49216.13
559.09	49492.11
559.30	49478.60
559.50	49873.94
559.71	49579.93
559.91	50509.95
560.12	50354.55
560.32	50479.81
560.53	50907.92
560.73	50746.95
560.94	51366.82
561.14	51051.76
561.35	51920.43
561.55	51718.09
561.76	52077.39
561.96	51609.06
562.17	52321.83
562.37	52670.48
562.57	52638.78
562.78	52791.64
562.98	53258.49
563.19	53392.27
563.39	53596.65
563.60	53812.84
563.80	53379.32
564.01	54262.82
564.21	54163.37
564.42	54185.98
564.62	54613.67
564.82	55096.67
565.03	54748.10
565.23	54781.69
565.44	55206.03
565.64	55256.00
565.85	55773.64
566.05	55627.25
566.25	55979.18
566.46	55741.04
566.66	56274.41
566.87	56404.83
567.07	56523.12
567.28	56716.86
567.48	57217.95
567.68	56563.59
567.89	57647.62
568.09	57199.69
568.30	57356.72
568.50	57924.58
568.71	57754.77
568.91	58069.83
569.11	57641.72
569.32	57891.90
569.52	58127.91
569.73	57653.68
569.93	58444.52
570.13	58254.88
570.34	58384.56
570.54	59000.18
570.75	58757.37
570.95	58791.61
571.15	58680.53
571.36	59292.79
571.56	58795.63
571.77	58848.55
571.97	58519.15
572.17	59406.17
572.38	59346.20
572.58	59665.60
572.79	59401.91
572.99	59421.81
573.19	59429.92
573.40	59333.01
573.60	59608.59
573.81	59452.21
574.01	59927.91
574.21	59785.12
574.42	59854.75
574.62	59555.42
574.82	60232.40
575.03	59867.94
575.23	60332.50
575.43	59886.13
575.64	59857.54
575.84	60330.70
576.05	59605.97
576.25	59859.26
576.45	59639.80
576.66	60253.94
576.86	59637.91
577.06	59931.02
577.27	59788.56
577.47	59949.53
577.67	59797.66
577.88	59244.87
578.08	59942.73
578.28	59973.54
578.49	59743.02
578.69	59772.26
578.89	59335.88
579.10	59492.43
579.30	60154.41
579.50	59479.48
579.71	58946.11
579.91	59486.69
580.11	59049.08
580.32	58883.69
580.52	58831.26
580.72	59281.90
580.93	58549.30
581.13	58708.87
581.33	59162.87
581.54	58596.89
581.74	58567.24
581.94	58578.79
582.15	58821.59
582.35	58339.34
582.55	58241.36
582.76	57780.49
582.96	58302.15
583.16	57626.15
583.37	57839.06
583.57	57381.22
583.77	57818.99
583.97	56633.63
584.18	57774.92
584.38	57371.88
584.58	56964.01
584.79	57302.00
584.99	56957.21
585.19	56713.50
585.40	56453.00
585.60	56657.79
585.80	56026.28
586.00	56395.08
586.21	56227.80
586.41	56219.04
586.61	56327.09
586.82	56036.03
587.02	55749.89
587.22	55821.48
587.42	55047.60
587.63	55655.43
587.83	54831.58
588.03	55130.83
588.23	54676.01
588.44	54836.66
588.64	54416.17
588.84	54596.23
589.05	54689.53
589.25	54374.64
589.45	54311.48
589.65	54060.31
589.86	54198.59
590.06	54044.01
590.26	53689.79
590.46	53942.60
590.67	53203.03
590.87	53651.78
591.07	53634.17
591.27	53000.86
591.48	53344.26
591.68	52580.37
591.88	53467.06
592.08	52524.91
592.29	52925.08
592.49	52649.67
592.69	52767.14
592.89	52274.98
593.10	52306.27
593.30	52056.25
593.50	52385.89
593.70	51243.05
593.90	52026.76
594.11	51681.97
594.31	51617.25
594.51	51778.96
594.71	51624.13
594.92	51534.84
595.12	51270.32
595.32	51142.86
595.52	51247.14
595.72	50472.11
595.93	51138.76
596.13	50798.80
596.33	50439.75
596.53	50792.90
596.73	50615.14
596.94	50436.06
597.14	50609.81
597.34	50280.91
597.54	50503.24
597.74	49917.68
597.95	50043.84
598.15	49914.32
598.35	49950.61
598.55	49870.25
598.75	49654.56
598.96	50133.37
599.16	49650.46
599.36	49718.29
599.56	49576.00
599.76	49367.93
599.97	49869.51
600.17	49487.77
600.37	49513.33
600.57	48709.95
600.77	49562.40
600.97	48960.87
601.18	49502.19
601.38	48936.54
601.58	49305.67
601.78	49006.25
601.98	48847.66
602.18	49112.50
602.39	49292.64
602.59	48991.43
602.79	48983.64
602.99	48938.02
603.19	48865.27
603.39	48575.93
603.60	48629.02
603.80	48631.07
604.00	48549.47
604.20	48550.54
604.40	48825.87
604.60	48518.59
604.80	48418.81
605.01	48564.79
605.21	48372.12
605.41	48198.70
605.61	47953.52
605.81	48362.21
606.01	48569.71
606.21	47997.34
606.42	48602.64
606.62	48323.71
606.82	48702.34
607.02	48241.54
607.22	48444.54
607.42	48680.30
607.62	48092.04
607.82	48302.65
608.03	48345.82
608.23	48038.55
608.43	47995.13
608.63	48505.40
608.83	48329.44
609.03	48385.72
609.23	48468.38
609.43	48627.54
609.63	48475.42
609.84	48229.25
610.04	48818.99
610.24	48683.41
610.44	48668.01
610.64	48374.41
610.84	48614.44
611.04	48878.71
611.24	48671.21
611.44	48095.48
611.64	48725.52
611.85	48782.04
612.05	48765.49
612.25	48967.92
612.45	48631.97
612.65	48920.81
612.85	49003.80
613.05	48654.33
613.25	49293.22
613.45	49041.64
613.65	49100.13
613.85	48710.45
614.05	49131.67
614.25	49367.60
614.46	49369.89
614.66	49156.57
614.86	49075.39
615.06	49304.19
615.26	49595.25
615.46	49035.74
615.66	49719.36
615.86	49672.01
616.06	49320.66
616.26	49392.17
616.46	50034.74
616.66	49686.43
616.86	50254.04
617.06	49966.18
617.26	50474.40
617.46	50204.64
617.66	50027.94
617.86	49886.55
618.07	50222.26
618.27	50234.71
618.47	50383.39
618.67	50504.96
618.87	50653.80
619.07	50502.75
619.27	50389.78
619.47	50590.89
619.67	51066.92
619.87	50811.09
620.07	51157.28
620.27	51190.78
620.47	50849.43
620.67	51391.56
620.87	51440.88
621.07	51683.44
621.27	51654.77
621.47	51318.90
621.67	51757.17
621.87	51539.59
622.07	52091.48
622.27	52085.58
622.47	51938.86
622.67	52190.27
622.87	51944.93
623.07	52465.93
623.27	53036.66
623.47	52123.34
623.67	52623.95
623.87	53126.28
624.07	53001.68
624.27	52639.76
624.47	53054.19
624.67	53077.94
624.87	53242.44
625.07	52919.68
625.27	53529.56
625.47	53228.76
625.67	53292.00
625.87	53760.57
626.07	53735.10
626.27	54103.07
626.47	54092.02
626.67	53966.52
626.87	53784.90
627.07	54304.10
627.27	54339.90
627.47	54658.16
627.67	54574.11
627.87	54613.26
628.07	55188.58
628.27	55112.64
628.47	54901.13
628.67	55501.35
628.86	55570.40
629.06	55371.09
629.26	55391.74
629.46	55907.91
629.66	55779.21
629.86	55420.57
630.06	56072.97
630.26	56060.44
630.46	56537.45
630.66	55948.79
630.86	56249.02
631.06	56270.40
631.26	56097.63
631.46	56764.21
631.66	56746.92
631.86	56413.67
632.06	57019.38
632.26	56908.55
632.45	57144.47
632.65	57450.44
632.85	57632.13
633.05	57524.82
633.25	57635.08
633.45	57225.41
633.65	57551.03
633.85	58139.38
634.05	57197.96
634.25	57697.34
634.45	57856.67
634.65	58338.36
634.84	57905.58
635.04	58296.17
635.24	58029.77
635.44	58588.62
635.64	58265.78
635.84	58708.46
636.04	58538.24
636.24	58684.13
636.44	58825.77
636.64	58199.26
636.84	59337.93
637.03	58661.69
637.23	59259.45
637.43	59383.48
637.63	59242.82
637.83	59633.98
638.03	59653.73
638.23	59236.76
638.43	59780.62
638.62	60029.08
638.82	59053.51
639.02	59971.82
639.22	59590.98
639.42	59820.27
639.62	59487.02
639.82	59654.38
640.02	59895.47
640.21	60157.77
640.41	59531.91
640.61	60263.45
640.81	60141.31
641.01	60193.73
641.21	60198.89
641.41	60921.91
641.61	60229.29
641.80	60279.09
642.00	60749.80
642.20	60811.56
642.40	60114.52
642.60	60647.73
642.80	60808.29
642.99	60470.62
643.19	61043.48
643.39	60455.22
643.59	60879.56
643.79	60736.85
643.99	61014.23
644.19	60653.63
644.38	60164.24
644.58	60590.88
644.78	60379.44
644.98	60362.16
645.18	60510.84
645.38	60790.02
645.57	60482.58
645.77	60727.76
645.97	60659.69
646.17	61062.15
646.37	60973.68
646.56	60727.68
646.76	60904.38
646.96	60816.81
647.16	60666.40
647.36	60919.12
647.55	60722.03
647.75	60919.21
647.95	60365.93
648.15	60707.94
648.35	60620.37
648.55	60675.42
648.74	60386.57
648.94	60401.48
649.14	60639.45
649.34	60127.87
649.54	60160.39
649.73	60244.52
649.93	59951.75
650.13	60158.67
650.33	59854.84
650.52	60230.19
650.72	60634.95
650.92	60154.74
651.12	59961.25
651.32	60098.30
651.51	60283.68
651.71	60228.63
651.91	59742.93
652.11	59461.54
652.30	59399.86
652.50	59826.57
652.70	59783.98
652.90	59203.34
653.10	59581.55
653.29	59235.61
653.49	59534.21
653.69	58909.25
653.89	58974.37
654.08	58783.83
654.28	59173.19
654.48	58779.08
654.68	58959.79
654.87	58599.02
655.07	58409.22
655.27	58802.67
655.47	58355.56
655.66	58384.72
655.86	58154.12
656.06	58699.70
656.26	57636.39
656.45	57873.47
656.65	57770.82
656.85	57632.38
657.04	57177.65
657.24	57103.68
657.44	56950.00
657.64	57409.15
657.83	56327.09
658.03	57027.98
658.23	56892.82
658.43	56589.31
658.62	56637.80
658.82	56256.88
659.02	56205.60
659.21	56169.80
659.41	55982.37
659.61	56298.17
659.81	55867.28
660.00	55635.69
660.20	55826.40
660.40	55425.16
660.59	55418.77
660.79	54720.91
660.99	54981.16
661.19	54770.96
661.38	54645.54
661.58	53828.16
661.78	54267.57
661.97	53967.25
662.17	54669.95
662.37	54007.07
662.56	54019.27
662.76	54070.88
662.96	54059.25
663.15	54039.92
663.35	53897.46
663.55	53526.78
663.74	53245.96
663.94	53630.57
664.14	52871.26
664.33	53036.98
664.53	52611.74
664.73	52989.55
664.93	52137.52
665.12	52467.89
665.32	52177.82
665.52	52012.18
665.71	51832.45
665.91	51890.53
666.10	51518.29
666.30	51734.48
666.50	51224.29
666.69	51063.89
666.89	51396.23
667.09	51444.57
667.28	50929.13
667.48	50665.76
667.68	50686.49
667.87	50526.01
668.07	50318.92
668.27	50629.56
668.46	50506.19
668.66	50114.04
668.86	50462.52
669.05	49841.83
669.25	50042.20
669.44	49564.94
669.64	49450.66
669.84	49422.24
670.03	49751.63
670.23	49290.59
670.43	49084.81
670.62	48956.28
670.82	48835.94
671.01	48836.76
671.21	48344.27
671.41	48393.42
671.60	48522.03
671.80	48586.91
672.00	48193.78
672.19	48368.52
672.39	48182.15
672.58	47953.19
672.78	47792.38
672.98	48061.98
673.17	47591.27
673.37	46826.89
673.56	47126.96
673.76	47163.33
673.96	47324.87
674.15	46875.55
674.35	46935.43
674.54	46723.01
674.74	46581.05
674.94	46542.22
675.13	46688.77
675.33	46121.73
675.52	46553.20
675.72	46280.33
675.91	46026.21
676.11	46226.59
676.31	45654.06
676.50	45773.25
676.70	45573.45
676.89	45561.82
677.09	45607.36
677.28	45403.39
677.48	44728.46
677.68	45124.62
677.87	44741.56
678.07	44645.23
678.26	44753.11
678.46	44686.43
678.65	44530.21
678.85	44797.68
679.04	44219.50
679.24	44498.76
679.44	44336.56
679.63	44542.42
679.83	44180.42
680.02	44222.36
680.22	43829.32
680.41	43845.62
680.61	43615.59
680.80	43335.67
681.00	43407.84
681.19	43303.56
681.39	43226.48
681.59	43210.50
681.78	43105.24
681.98	43296.76
682.17	42728.08
682.37	43062.39
682.56	42666.48
682.76	42951.39
682.95	42654.44
683.15	42666.40
683.34	42519.44
683.54	42600.04
683.73	42602.91
683.93	42081.17
684.12	42455.54
684.32	42592.67
684.51	42010.97
684.71	42207.90
684.90	42078.30
685.10	41988.77
685.29	41683.37
685.49	41906.11
685.68	41847.13
685.88	41798.80
686.07	41497.83
686.27	41789.87
686.46	41572.54
686.66	41367.90
686.85	41574.42
687.05	41195.96
687.24	41124.36
687.44	41286.31
687.63	41221.27
687.83	40754.58
688.02	41129.68
688.22	41202.02
688.41	41028.51
688.61	40982.07
688.80	41153.93
689.00	40759.58
689.19	40603.11
689.39	41107.24
689.58	40942.09
689.77	40712.64
689.97	40706.33
690.16	40517.26
690.36	40158.37
690.55	39948.25
690.75	40564.36
690.94	40196.06
691.14	40278.47
691.33	39811.94
691.53	40166.97
691.72	39905.16
691.91	39932.69
692.11	39889.68
692.30	40076.45
692.50	40021.00
692.69	39721.91
692.89	39876.25
693.08	39727.07
693.28	39692.67
693.47	39658.18
693.66	39623.61
693.86	39497.94
694.05	39425.28
694.25	39530.38
694.44	39695.53
694.64	39550.37
694.83	39472.39
695.02	39448.88
695.22	39515.48
695.41	39255.87
695.61	39177.40
695.80	39168.55
695.99	39217.21
696.19	39170.11
696.38	39160.52
696.58	38828.59
696.77	39426.18
696.96	39323.62
697.16	39195.01
697.35	39088.19
697.55	38979.97
697.74	38837.52
697.93	39207.54
698.13	38702.10
698.32	39055.50
698.52	38907.31
698.71	38573.57
698.90	39122.84
699.10	38797.05
699.29	38751.75
699.49	39090.48
699.68	38711.44
699.87	38669.58
700.07	38974.73
700.26	38740.52
700.45	38758.63
700.65	38430.87
700.84	38931.39
701.04	38621.25
701.23	38936.23
701.42	38803.03
701.62	38633.54
701.81	38823.51
702.00	38747.73
702.20	38465.03
702.39	38619.12
702.58	38764.03
702.78	38539.25
702.97	38507.79
703.17	38602.24
703.36	38601.26
703.55	38507.30
703.75	38455.86
703.94	38691.13
704.13	38481.91
704.33	38469.62
704.52	38790.58
704.71	38602.65
704.91	38535.97
705.10	38327.16
705.29	38424.24
705.49	38481.91
705.68	38621.00
705.87	38557.84
706.07	38268.02
706.26	38684.41
706.45	38258.27
706.65	38088.86
706.84	38521.55
707.03	38787.87
707.23	38166.52
707.42	38121.46
707.61	38608.22
707.80	38332.90
708.00	38495.01
708.19	38337.73
708.38	38724.47
708.58	37981.46
708.77	38546.21
708.96	37979.17
709.16	37986.54
709.35	38732.09
709.54	38270.15
709.74	38237.38
709.93	38005.47
710.12	38692.27
710.31	38844.31
710.51	38418.09
710.70	38430.46
710.89	38587.58
711.09	38118.27
711.28	38091.48
711.47	38428.41
711.66	38326.18
711.86	38312.01
712.05	38450.45
712.24	38636.49
712.43	38291.77
712.63	37943.62
712.82	38502.39
713.01	38324.46
713.21	38141.70
713.40	38287.68
713.59	38724.71
713.78	38155.62
713.98	38604.54
714.17	38374.35
714.36	38547.28
714.55	38194.04
714.75	38381.47
714.94	38381.39
715.13	38697.60
715.32	38133.01
715.52	38471.34
715.71	38228.12
715.90	38388.93
716.09	38216.57
716.29	38678.18
716.48	38507.71
716.67	37976.14
716.86	38442.26
717.06	38460.61
717.25	38590.53
717.44	38707.26
717.63	38749.78
717.82	38382.21
718.02	38583.57
718.21	38764.94
718.40	38748.96
718.59	38629.03
718.79	38456.51
718.98	38562.35
719.17	38819.74
719.36	38905.92
719.55	38656.72
719.75	38684.98
719.94	38543.84
720.13	38850.29
720.32	38616.33
720.51	38464.62
720.71	38383.36
720.90	38096.89
721.09	38464.46
721.28	38304.80
721.47	38792.79
721.67	38626.74
721.86	38733.48
722.05	38750.27
722.24	38505.25
722.43	38813.84
722.63	38453.56
722.82	38580.21
723.01	38636.73
723.20	38347.64
723.39	38417.44
723.58	38624.20
723.78	38100.08
723.97	38709.80
724.16	38289.64
724.35	38529.58
724.54	38406.13
724.73	38816.95
724.93	38643.53
725.12	38953.27
725.31	38306.35
725.50	38706.36
725.69	38960.64
725.88	38655.90
726.08	38434.39
726.27	38881.18
726.46	38291.36
726.65	39219.34
726.84	38542.12
727.03	38677.86
727.23	38910.91
727.42	38472.90
727.61	38493.54
727.80	38402.12
727.99	38634.85
728.18	38716.03
728.37	38592.41
728.56	38534.33
728.76	38431.77
728.95	38679.82
729.14	38562.35
729.33	38437.83
729.52	38391.96
729.71	38473.55
729.90	38505.09
730.09	38233.36
730.29	38660.73
730.48	38190.52
730.67	38748.22
730.86	38358.95
731.05	38743.72
731.24	38471.50
731.43	38516.15
731.62	38317.41
731.81	38260.32
732.01	38693.75
732.20	38231.89
732.39	38446.27
732.58	38487.80
732.77	37948.78
732.96	38536.05
733.15	38578.90
733.34	38293.08
733.53	38502.14
733.72	38578.00
733.92	38462.00
734.11	38425.71
734.30	38571.28
734.49	38888.39
734.68	38590.94
734.87	38482.40
735.06	38429.72
735.25	38516.97
735.44	38248.03
735.63	38481.91
735.82	38477.73
736.01	38346.66
736.20	38287.19
736.40	38673.84
736.59	38493.95
736.78	38686.79
736.97	38173.32
737.16	38380.41
737.35	38363.53
737.54	38351.49
737.73	38094.68
737.92	38293.66
738.11	38501.65
738.30	38215.01
738.49	38220.18
738.68	38144.89
738.87	38432.43
739.06	38134.57
739.25	38215.51
739.44	38179.63
739.63	38038.40
739.82	37823.93
740.01	38033.32
740.20	37678.86
740.39	37642.24
740.59	37650.35
740.78	37626.26
740.97	37487.99
741.16	37401.48
741.35	37648.22
741.54	37611.19
741.73	37722.36
741.92	37526.49
742.11	37662.23
742.30	37761.02
742.49	37462.67
742.68	37819.51
742.87	37659.44
743.06	37236.82
743.25	37450.06
743.44	37104.28
743.63	37372.48
743.82	37054.96
744.01	37104.77
744.20	36892.93
744.39	37246.24
744.58	37030.06
744.77	36866.14
744.96	36503.98
745.15	36867.29
745.34	36598.68
745.53	36765.79
745.72	36421.24
745.91	36451.30
746.10	36168.27
746.29	36513.89
746.48	36431.07
746.67	36329.41
746.86	36371.27
747.04	36256.91
747.23	36119.70
747.42	36292.30
747.61	35922.93
747.80	36466.46
747.99	35781.05
748.18	36180.40
748.37	36030.65
748.56	35537.42
748.75	35854.85
748.94	35734.68
749.13	35770.23
749.32	35553.64
749.51	35640.96
749.70	35734.92
749.89	35515.30
750.08	35600.50
750.27	35179.19
750.46	35402.42
750.65	35784.65
750.84	35248.25
751.02	35442.72
751.21	35153.47
751.40	35201.96
751.59	35186.89
751.78	34952.03
751.97	34938.43
752.16	34638.11
752.35	35018.71
752.54	34587.57
752.73	34814.32
752.92	34565.13
753.11	34455.11
753.30	34504.01
753.49	34528.02
753.67	34313.63
753.86	34138.57
754.05	34291.02
754.24	33967.12
754.43	34066.57
754.62	34089.83
754.81	33737.25
755.00	33868.90
755.19	33747.25
755.38	33413.76
755.56	33664.10
755.75	33937.55
755.94	33505.01
756.13	33531.56
756.32	33485.52
756.51	33345.68
756.70	33408.51
756.89	33325.61
757.08	33149.81
757.26	33134.41
757.45	33167.10
757.64	32836.72
757.83	33182.58
758.02	32883.42
758.21	32836.89
758.40	32924.95
758.59	32923.39
758.77	32650.52
758.96	32652.81
759.15	32627.34
759.34	32303.51
759.53	32358.15
759.72	32219.30
759.91	31876.96
760.09	32035.64
760.28	32063.49
760.47	31732.54
760.66	31970.84
760.85	31591.15
761.04	31929.14
761.23	31726.72
761.41	31591.47
761.60	31666.59
761.79	31439.11
761.98	31237.42
762.17	31490.80
762.36	31135.68
762.54	31413.79
762.73	31202.52
762.92	30968.48
763.11	31284.93
763.30	31210.55
763.49	30993.80
763.67	30775.32
763.86	30790.39
764.05	30925.88
764.24	30717.65
764.43	30914.17
764.61	30437.81
764.80	30414.55
764.99	30617.95
765.18	30181.98
765.37	30241.45
765.55	30244.40
765.74	30007.41
765.93	29670.73
766.12	30092.03
766.31	30005.04
766.49	30060.25
766.68	30056.56
766.87	30004.30
767.06	29853.57
767.25	29782.13
767.43	29735.20
767.62	29525.89
767.81	29609.61
768.00	29230.00
768.19	29066.66
768.37	29231.40
768.56	29198.38
768.75	29170.12
768.94	29286.12
769.12	28963.52
769.31	28840.72
769.50	28782.73
769.69	28926.33
769.88	28425.40
770.06	28843.84
770.25	28521.98
770.44	28401.31
770.63	28672.96
770.81	28482.41
771.00	28188.32
771.19	28192.75
771.38	28051.44
771.56	28140.16
771.75	27611.37
771.94	28037.02
772.13	27893.09
772.31	27795.20
772.50	27967.63
772.69	27701.15
772.88	27979.10
773.06	27471.45
773.25	27675.68
773.44	27604.57
773.62	27453.84
773.81	27452.78
774.00	27319.90
774.19	27333.17
774.37	27183.26
774.56	27430.49
774.75	26948.65
774.94	27268.38
775.12	26944.72
775.31	27044.66
775.50	27005.91
775.68	26781.04
775.87	26729.84
776.06	26535.45
776.25	26758.43
776.43	26506.78
776.62	26664.31
776.81	26365.14
776.99	26558.80
777.18	26406.59
777.37	26095.79
777.55	26200.73
777.74	26101.53
777.93	26145.43
778.12	26023.54
778.30	25862.98
778.49	25799.65
778.68	25979.06
778.86	25806.70
779.05	25766.48
779.24	25739.53
779.42	25587.49
779.61	25491.97
779.80	25537.68
779.98	25738.95
780.17	25757.96
780.36	25473.13
780.54	25628.69
780.73	25079.34
780.92	25473.04
781.10	25187.31
781.29	25026.83
781.48	24946.72
781.66	24971.54
781.85	24936.72
782.04	24854.48
782.22	24921.08
782.41	24583.49
782.60	24724.14
782.78	24656.64
782.97	24686.13
783.16	24403.02
783.34	24357.88
783.53	24446.19
783.71	24312.75
783.90	24278.75
784.09	24257.37
784.27	24198.88
784.46	24132.44
784.65	24223.54
784.83	24023.00
785.02	23995.89
785.20	24258.44
785.39	23829.10
785.58	24134.49
785.76	24075.43
785.95	24040.37
786.14	24003.83
786.32	23997.77
786.51	23919.78
786.69	24028.49
786.88	23857.85
787.07	23810.26
787.25	23732.84
787.44	23722.93
787.62	23651.99
787.81	23738.91
788.00	23681.07
788.18	23509.78
788.37	23466.12
788.55	23789.20
788.74	23546.64
788.93	23684.10
789.11	23910.85
789.30	23798.54
789.48	23550.25
789.67	23721.87
789.86	23646.67
790.04	23771.43
790.23	23610.21
790.41	23579.49
790.60	23700.41
790.78	23667.56
790.97	23356.67
791.16	23566.80
791.34	23719.16
791.53	23333.00
791.71	23600.79
791.90	23344.88
792.08	23366.59
792.27	23347.50
792.46	23263.61
792.64	23309.00
792.83	23086.67
793.01	23233.88
793.20	23156.87
793.38	23060.05
793.57	23091.09
793.75	23078.89
793.94	23133.20
794.12	23314.57
794.31	23065.13
794.50	23234.94
794.68	23237.65
794.87	23085.20
795.05	23273.28
795.24	23044.65
795.42	22925.29
795.61	23247.48
795.79	23236.99
795.98	22954.86
796.16	23148.44
796.35	23178.42
796.53	22960.68
796.72	23190.62
796.90	23207.42
797.09	23136.56
797.27	23127.22
797.46	23103.95
797.64	23187.35
797.83	23021.63
798.01	23026.79
798.20	23109.93
798.38	22843.86
798.57	23057.51
798.75	22956.01
798.94	22676.67
799.12	23236.42
799.31	22897.27
799.49	22863.69
799.68	22742.04
799.86	22749.82
800.05	22684.86
800.23	22790.04
800.42	22633.58
800.60	22917.51
800.79	22622.44
800.97	22749.49
801.16	22870.49
801.34	22604.17
801.53	22559.85
801.71	22682.81
801.90	22572.30
802.08	22846.81
802.27	22606.05
802.45	22462.78
802.64	22561.82
802.82	22561.98
803.00	22290.50
803.19	22415.26
803.37	22641.11
803.56	22419.61
803.74	22420.26
803.93	22484.24
804.11	22425.01
804.30	22327.94
804.48	22472.03
804.67	22519.63
804.85	22393.96
805.03	22591.80
805.22	22345.47
805.40	22239.71
805.59	22333.92
805.77	22291.65
805.96	22210.88
806.14	22221.85
806.32	22344.40
806.51	22373.08
806.69	22103.73
806.88	21981.91
807.06	21916.46
807.25	21978.88
807.43	21914.25
807.61	21982.41
807.80	21898.11
807.98	22065.55
808.17	21928.17
808.35	21882.05
808.53	22166.31
808.72	21955.29
808.90	21905.57
809.09	21988.14
809.27	22000.26
809.45	21785.06
809.64	21957.67
809.82	21752.13
810.01	21768.43
810.19	21780.56
810.37	21691.92
810.56	21611.80
810.74	21715.51
810.93	21483.44
811.11	21596.90
811.29	21407.17
811.48	21585.26
811.66	21538.16
811.84	21493.19
812.03	21554.05
812.21	21578.87
812.40	21660.14
812.58	21703.06
812.76	21467.55
812.95	21595.50
813.13	21278.31
813.31	21414.30
813.50	21468.69
813.68	21367.03
813.86	21484.09
814.05	21507.19
814.23	21162.07
814.42	21397.75
814.60	21247.10
814.78	21329.35
814.97	21290.77
815.15	21309.52
815.33	21430.93
815.52	21291.58
815.70	21347.94
815.88	21314.60
816.07	21079.25
816.25	21156.91
816.43	21049.84
816.62	20816.62
816.80	20922.95
816.98	20875.76
817.17	20852.83
817.35	20900.59
817.53	20866.18
817.72	20969.48
817.90	20723.31
818.08	20771.81
818.26	20880.76
818.45	20785.41
818.63	20910.50
818.81	20907.96
819.00	20679.41
819.18	20859.95
819.36	20782.62
819.55	20820.31
819.73	20654.09
819.91	20878.96
820.09	20751.33
820.28	20908.61
820.46	20691.04
820.64	21005.11
820.83	20775.09
821.01	20735.19
821.19	20677.60
821.38	20729.95
821.56	20603.14
821.74	20673.67
821.92	20546.21
822.11	20736.26
822.29	20401.78
822.47	20506.39
822.65	20576.93
822.84	20626.16
823.02	20373.36
823.20	20680.63
823.39	20410.55
823.57	20562.26
823.75	20533.67
823.93	20444.46
824.12	20528.35
824.30	20491.89
824.48	20490.66
824.66	20646.15
824.85	20270.63
825.03	20488.29
825.21	20585.69
825.39	20459.13
825.58	20502.79
825.76	20394.66
825.94	20429.80
826.12	20404.90
826.31	20323.96
826.49	20353.37
826.67	20358.86
826.85	20315.44
827.03	20348.13
827.22	20450.36
827.40	20308.80
827.58	20402.36
827.76	20391.71
827.95	20271.29
828.13	20309.30
828.31	20367.29
828.49	20363.36
828.67	20341.57
828.86	20280.05
829.04	20327.56
829.22	20264.08
829.40	20278.41
829.58	20192.23
829.77	20256.87
829.95	20253.26
830.13	20217.47
830.31	20087.71
830.49	20163.89
830.68	20170.53
830.86	20105.48
831.04	20037.98
831.22	20066.41
831.40	20037.74
831.59	20167.41
831.77	20065.18
831.95	20218.86
832.13	19976.21
832.31	20128.91
832.50	20105.97
832.68	19975.56
832.86	20014.31
833.04	20182.40
833.22	19890.36
833.40	20209.52
833.59	19949.51
833.77	20159.88
833.95	19715.96
834.13	20289.47
834.31	19992.35
834.49	20024.63
834.67	20022.99
834.86	20100.81
835.04	19957.29
835.22	19948.94
835.40	19951.88
835.58	19851.04
835.76	19914.20
835.95	19953.20
836.13	19901.34
836.31	19829.42
836.49	20012.75
836.67	20012.59
836.85	19950.57
837.03	19858.83
837.21	19926.41
837.40	19787.56
837.58	19682.21
837.76	19821.88
837.94	19867.67
838.12	20019.14
838.30	19804.60
838.48	19800.91
838.66	19734.47
838.85	19671.48
839.03	19757.00
839.21	19691.30
839.39	19721.61
839.57	19787.06
839.75	19736.52
839.93	19808.28
840.11	19853.50
840.29	19713.67
840.47	19794.76
840.66	19713.42
840.84	19704.33
841.02	19608.81
841.20	19682.95
841.38	19627.24
841.56	19565.97
841.74	19794.52
841.92	19553.68
842.10	19571.78
842.28	19654.03
842.46	19556.87
842.65	19564.41
842.83	19690.73
843.01	19787.80
843.19	19551.14
843.37	19726.85
843.55	19567.52
843.73	19691.96
843.91	19819.09
844.09	19618.48
844.27	19836.71
844.45	19664.35
844.63	19694.41
844.81	19720.46
844.99	19795.99
845.17	19710.14
845.35	19751.68
845.54	19583.25
845.72	19627.24
845.90	19642.64
846.08	19649.60
846.26	19420.23
846.44	19627.32
846.62	19324.47
846.80	19354.94
846.98	19365.84
847.16	19376.24
847.34	19493.80
847.52	19438.42
847.70	19387.30
847.88	19560.89
848.06	19450.13
848.24	19575.71
848.42	19569.65
848.60	19476.43
848.78	19638.79
848.96	19621.92
849.14	19540.41
849.32	19686.80
849.50	19507.72
849.68	19662.79
849.86	19599.47
850.04	19456.36
850.22	19467.42
850.40	19327.83
850.58	19426.62
850.76	19690.56
850.94	19194.05
851.12	19523.86
851.30	19266.55
851.48	19502.23
851.66	19319.64
851.84	19375.18
852.02	19314.39
852.20	19452.10
852.38	19263.44
852.56	19386.48
852.74	19408.19
852.92	19318.73
853.10	19274.58
853.28	19367.07
853.46	19009.74
853.64	19362.48
853.82	19160.14
854.00	19224.28
854.18	19089.12
854.36	19097.39
854.54	19242.14
854.72	19078.22
854.90	19059.79
855.07	19182.34
855.25	19133.60
855.43	19149.00
855.61	19134.17
855.79	19074.62
855.97	19156.45
856.15	19148.75
856.33	19114.43
856.51	19291.05
856.69	19034.15
856.87	19212.16
857.05	19154.41
857.23	19160.14
857.41	18971.24
857.59	18904.96
857.77	18942.89
857.94	18914.63
858.12	18977.71
858.30	18946.50
858.48	18862.12
858.66	18824.68
858.84	18982.62
859.02	18826.89
859.20	18714.17
859.38	19059.46
859.56	18926.67
859.74	18880.31
859.92	18948.87
860.09	18855.73
860.27	19037.10
860.45	18861.05
860.63	18927.90
860.81	19068.15
860.99	18940.27
861.17	18730.23
861.35	18513.06
861.53	18329.57
861.70	18284.43
861.88	18620.54
862.06	18689.44
862.24	18463.34
862.42	18490.29
862.60	18684.68
862.78	18727.20
862.96	18793.96
863.14	18604.98
863.31	18665.68
863.49	18542.15
863.67	18478.08
863.85	18455.97
864.03	18512.33
864.21	18466.29
864.39	18522.32
864.56	18345.29
864.74	18486.85
864.92	18367.25
865.10	18321.37
865.28	18356.03
865.46	18565.49
865.64	18222.99
865.81	18408.62
865.99	18175.89
866.17	18397.64
866.35	18298.68
866.53	18319.65
866.71	18339.23
866.88	18386.91
867.06	18255.35
867.24	18365.61
867.42	18241.18
867.60	18364.14
867.78	18244.12
867.95	18451.87
868.13	18171.38
868.31	18352.91
868.49	18355.29
868.67	18283.53
868.84	18176.21
869.02	18312.61
869.20	17942.25
869.38	18183.34
869.56	18020.90
869.73	17969.04
869.91	18076.68
870.09	18116.00
870.27	17937.75
870.45	18001.56
870.62	17767.77
870.80	17968.47
870.98	17804.14
871.16	17870.74
871.34	17862.47
871.51	17888.43
871.69	17709.44
871.87	17818.47
872.05	17758.43
872.23	17740.65
872.40	17595.41
872.58	17670.78
872.76	17588.37
872.94	17586.73
873.11	17629.73
873.29	17523.98
873.47	17597.21
873.65	17581.81
873.83	17580.75
874.00	17595.57
874.18	17674.46
874.36	17570.83
874.54	17638.50
874.71	17536.76
874.89	17427.56
875.07	17525.94
875.25	17431.49
875.42	17489.41
875.60	17418.63
875.78	17526.93
875.96	17324.26
876.13	17391.60
876.31	17107.67
876.49	17127.57
876.66	16969.22
876.84	17327.95
877.02	17087.35
877.20	17138.88
877.37	17135.44
877.55	17138.63
877.73	17149.44
877.91	17081.21
878.08	17129.46
878.26	17177.62
878.44	17153.62
878.61	17212.36
878.79	17126.83
878.97	17189.67
879.15	17328.19
879.32	17231.85
879.50	17226.53
879.68	17375.70
879.85	17164.60
880.03	17279.29
880.21	17113.32
880.38	17230.38
880.56	17069.41
880.74	17234.48
880.92	16961.69
881.09	17078.50
881.27	16984.38
881.45	16996.99
881.62	16965.29
881.80	16893.28
881.98	16832.99
882.15	16984.38
882.33	16809.73
882.51	16903.61
882.68	16792.52
882.86	17007.15
883.04	16805.14
883.21	16812.84
883.39	16999.45
883.57	16842.00
883.74	16923.35
883.92	16859.53
884.10	16895.66
884.27	16889.60
884.45	16750.58
884.63	16911.39
884.80	16872.80
884.98	16910.73
885.16	16854.86
885.33	16889.60
885.51	16851.51
885.69	16829.39
885.86	16787.12
886.04	16902.21
886.21	16668.17
886.39	16841.84
886.57	16562.82
886.74	16841.18
886.92	16745.50
887.10	16761.07
887.27	16800.72
887.45	16779.25
887.62	16789.99
887.80	16818.08
887.98	17042.46
888.15	16940.96
888.33	16857.73
888.51	16978.32
888.68	16865.84
888.86	16907.62
889.03	16736.98
889.21	16823.90
889.39	16854.86
889.56	16821.93
889.74	16773.93
889.91	16864.53
890.09	16768.11
890.27	16799.90
890.44	16783.43
890.62	16822.18
890.79	16814.64
890.97	16888.86
891.14	16783.19
891.32	16781.06
891.50	16731.82
891.67	16844.13
891.85	16770.32
892.02	16736.08
892.20	16919.99
892.38	16811.45
892.55	16728.05
892.73	16816.36
892.90	16630.82
893.08	16700.78
893.25	16681.12
893.43	16796.37
893.60	16618.53
893.78	16741.08
893.96	16708.39
894.13	16726.91
894.31	16859.04
894.48	16721.26
894.66	16819.23
894.83	16749.03
895.01	16739.28
895.18	16816.28
895.36	16687.10
895.53	16792.52
895.71	16657.93
895.89	16711.26
896.06	16576.75
896.24	16721.09
896.41	16628.69
896.59	16738.21
896.76	16480.17
896.94	16689.88
897.11	16641.71
897.29	16628.93
897.46	16454.86
897.64	16458.13
897.81	16418.81
897.99	16289.95
898.16	16484.84
898.34	16399.56
898.51	16340.25
898.69	16274.39
898.86	16266.28
899.04	16247.93
899.21	16126.69
899.39	16230.40
899.56	16075.33
899.74	16271.28
899.91	16149.30
900.09	16127.43
900.26	16186.00
900.44	16093.02
900.61	16115.30
900.79	16252.11
900.96	16074.42
901.14	16105.88
901.31	16021.59
901.49	15965.88
901.66	15986.03
901.84	15967.85
902.01	15855.37
902.19	15920.50
902.36	15821.46
902.54	15857.59
902.71	15767.48
902.88	15849.89
903.06	15591.51
903.23	15899.12
903.41	15745.36
903.58	15667.70
903.76	15559.32
903.93	15623.71
904.11	15711.28
904.28	15645.91
904.45	15560.47
904.63	15488.46
904.80	15335.76
904.98	15415.39
905.15	15221.49
905.33	15396.06
905.50	15287.60
905.68	15277.03
905.85	15216.82
906.02	15201.50
906.20	15275.31
906.37	15067.56
906.55	14950.17
906.72	15099.35
906.90	14929.53
907.07	14887.34
907.24	14916.59
907.42	14812.38
907.59	14851.71
907.77	14774.13
907.94	14694.09
908.11	14792.97
908.29	14682.46
908.46	14644.78
908.64	14532.71
908.81	14583.42
908.98	14447.76
909.16	14613.98
909.33	14444.57
909.51	14390.83
909.68	14367.24
909.85	14395.34
910.03	14330.62
910.20	14249.28
910.37	14201.60
910.55	14162.28
910.72	14136.96
910.90	13980.50
911.07	13952.97
911.24	13905.87
911.42	14002.13
911.59	13780.45
911.76	13857.54
911.94	13791.43
912.11	13742.94
912.29	13719.75
912.46	13629.40
912.63	13688.87
912.81	13503.40
912.98	13675.02
913.15	13474.08
913.33	13534.04
913.50	13512.83
913.67	13411.33
913.85	13368.08
914.02	13379.63
914.19	13309.91
914.37	13267.48
914.54	13251.75
914.71	13184.09
914.89	13145.75
915.06	13143.13
915.23	13046.87
915.41	13023.93
915.58	12966.10
915.75	12953.32
915.93	12889.26
916.10	12854.03
916.27	12779.32
916.45	12768.51
916.62	12634.90
916.79	12727.96
916.97	12568.96
917.14	12549.30
917.31	12437.40
917.49	12484.58
917.66	12451.32
917.83	12357.12
918.00	12345.16
918.18	12324.68
918.35	12268.07
918.52	12357.77
918.70	12233.58
918.87	12238.50
919.04	12279.54
919.21	12237.60
919.39	12167.15
919.56	12187.54
919.73	12075.64
919.91	12123.65
920.08	12095.30
920.25	12008.47
920.42	12089.81
920.60	11942.36
920.77	11839.23
920.94	11847.83
921.11	11680.38
921.29	11801.54
921.46	11557.92
921.63	11689.31
921.81	11580.85
921.98	11582.00
922.15	11468.71
922.32	11539.40
922.50	11464.86
922.67	11423.82
922.84	11345.99
923.01	11313.88
923.19	11297.17
923.36	11241.14
923.53	11089.10
923.70	11167.90
923.87	11119.32
924.05	11080.66
924.22	11032.74
924.39	11089.42
924.56	10957.29
924.74	10986.78
924.91	10980.72
925.08	10954.18
925.25	10910.84
925.43	10845.96
925.60	10778.05
925.77	10846.86
925.94	10746.35
926.11	10709.24
926.29	10648.29
926.46	10653.04
926.63	10605.12
926.80	10562.19
926.97	10491.01
927.15	10551.79
927.32	10385.00
927.49	10433.83
927.66	10407.37
927.83	10460.94
928.01	10322.42
928.18	10329.38
928.35	10210.03
928.52	10333.15
928.69	10177.01
928.87	10169.72
929.04	10158.33
929.21	10202.08
929.38	10115.82
929.55	10133.43
929.72	10039.63
929.90	10040.62
930.07	10033.90
930.24	9949.77
930.41	9913.56
930.58	9861.79
930.75	9878.91
930.93	9822.80
931.10	9753.33
931.27	9686.24
931.44	9658.63
931.61	9601.78
931.78	9657.24
931.95	9605.46
932.13	9557.21
932.30	9632.58
932.47	9468.17
932.64	9498.81
932.81	9457.03
932.98	9467.51
933.15	9415.90
933.33	9375.93
933.50	9379.61
933.67	9305.15
933.84	9287.21
934.01	9278.69
934.18	9268.86
934.35	9221.18
934.52	9201.36
934.70	9196.69
934.87	9135.25
935.04	9102.98
935.21	9097.08
935.38	9098.22
935.55	9061.20
935.72	9115.02
935.89	9016.14
936.06	9019.01
936.24	8912.10
936.41	8997.05
936.58	8909.73
936.75	8891.95
936.92	8855.25
937.09	8866.39
937.26	8790.62
937.43	8805.61
937.60	8815.19
937.77	8749.58
937.94	8739.99
938.12	8721.07
938.29	8637.68
938.46	8691.17
938.63	8582.38
938.80	8631.53
938.97	8530.36
939.14	8509.39
939.31	8491.53
939.48	8480.80
939.65	8392.74
939.82	8389.54
939.99	8372.18
940.16	8378.57
940.33	8319.67
940.50	8320.16
940.67	8285.84
940.85	8320.41
941.02	8285.34
941.19	8286.90
941.36	8209.98
941.53	8278.46
941.70	8222.10
941.87	8146.74
942.04	8169.27
942.21	8166.32
942.38	8133.47
942.55	8091.03
942.72	8094.15
942.89	8076.62
943.06	8025.01
943.23	7998.14
943.40	7955.46
943.57	7984.87
943.74	7957.59
943.91	7978.64
944.08	7933.42
944.25	7945.87
944.42	7863.38
944.59	7840.20
944.76	7838.56
944.93	7814.48
945.10	7769.17
945.27	7744.11
945.44	7637.20
945.61	7715.76
945.78	7640.81
945.95	7639.01
946.12	7603.37
946.29	7620.49
946.46	7592.80
946.63	7563.07
946.80	7559.13
946.97	7555.69
947.14	7473.69
947.31	7543.08
947.48	7494.01
947.65	7452.23
947.82	7431.34
947.99	7449.45
948.16	7334.27
948.33	7424.62
948.50	7327.63
948.67	7328.86
948.84	7322.64
949.01	7273.48
949.18	7278.32
949.35	7341.89
949.52	7213.52
949.68	7277.50
949.85	7235.56
950.02	7219.01
950.19	7202.62
950.36	7183.13
950.53	7142.91
950.70	7131.76
950.87	7079.01
951.04	7118.41
951.21	7031.00
951.38	7028.63
951.55	7047.31
951.72	7018.80
951.89	6968.01
952.06	7008.48
952.23	6972.19
952.39	6971.94
952.56	6909.27
952.73	6970.06
952.90	6902.39
953.07	6958.75
953.24	6858.40
953.41	6882.32
953.58	6779.76
953.75	6870.44
953.92	6812.20
954.09	6790.74
954.25	6769.03
954.42	6752.32
954.59	6729.22
954.76	6724.63
954.93	6686.70
955.10	6717.42
955.27	6645.25
955.44	6662.70
955.61	6631.32
955.77	6676.21
955.94	6622.56
956.11	6615.10
956.28	6633.70
956.45	6592.82
956.62	6612.89
956.79	6583.48
956.96	6578.65
957.12	6585.69
957.29	6540.97
957.46	6539.00
957.63	6500.74
957.80	6445.69
957.97	6454.54
958.14	6484.93
958.30	6422.68
958.47	6429.15
958.64	6415.63
958.81	6424.56
958.98	6401.70
959.15	6386.47
959.32	6406.62
959.48	6370.82
959.65	6319.54
959.82	6359.02
959.99	6308.97
960.16	6356.98
960.33	6318.31
960.49	6295.37
960.66	6280.96
960.83	6265.15
961.00	6250.65
961.17	6266.95
961.33	6218.70
961.50	6213.62
961.67	6182.33
961.84	6219.03
962.01	6179.21
962.18	6177.66
962.34	6120.64
962.51	6090.90
962.68	6055.35
962.85	6103.44
963.02	6006.53
963.18	6049.78
963.35	6020.13
963.52	6025.86
963.69	5995.22
963.86	6002.43
964.02	5968.85
964.19	6003.50
964.36	5966.14
964.53	5963.11
964.69	5913.06
964.86	5966.39
965.03	5899.05
965.20	5944.84
965.37	5869.72
965.53	5893.07
965.70	5854.41
965.87	5872.51
966.04	5859.89
966.20	5847.85
966.37	5832.04
966.54	5784.45
966.71	5829.34
966.87	5780.19
967.04	5788.13
967.21	5746.27
967.38	5711.70
967.54	5754.14
967.71	5718.26
967.88	5717.52
968.05	5693.27
968.21	5661.40
968.38	5641.74
968.55	5664.27
968.72	5624.05
968.88	5593.90
969.05	5625.52
969.22	5585.63
969.39	5613.40
969.55	5591.28
969.72	5559.09
969.89	5577.03
970.05	5616.68
970.22	5577.77
970.39	5556.22
970.56	5602.18
970.72	5551.72
970.89	5576.70
971.06	5558.51
971.22	5545.98
971.39	5526.73
971.56	5549.26
971.73	5488.80
971.89	5509.20
972.06	5496.83
972.23	5506.58
972.39	5445.14
972.56	5459.07
972.73	5414.58
972.89	5485.36
973.06	5440.22
973.23	5430.23
973.39	5400.08
973.56	5396.81
973.73	5394.02
973.89	5400.90
974.06	5360.44
974.23	5368.05
974.39	5356.01
974.56	5350.11
974.73	5297.60
974.89	5314.40
975.06	5278.84
975.23	5334.14
975.39	5268.19
975.56	5289.82
975.73	5263.94
975.89	5259.59
976.06	5252.30
976.23	5231.58
976.39	5211.43
976.56	5216.01
976.73	5205.45
976.89	5193.24
977.06	5191.60
977.23	5157.77
977.39	5177.92
977.56	5174.97
977.72	5113.20
977.89	5159.65
978.06	5141.22
978.22	5155.47
978.39	5123.03
978.56	5129.75
978.72	5110.91
978.89	5122.22
979.05	5099.93
979.22	5083.71
979.39	5056.76
979.55	5073.15
979.72	5042.92
979.88	5076.26
980.05	5036.04
980.22	5047.42
980.38	5002.86
980.55	5015.39
980.71	4984.59
980.88	4994.75
981.05	4993.85
981.21	4985.17
981.38	4967.72
981.54	4961.57
981.71	4959.36
981.88	4957.07
982.04	4958.95
982.21	4942.98
982.37	4928.72
982.54	4926.76
982.70	4911.68
982.87	4900.87
983.04	4870.81
983.20	4918.16
983.37	4882.36
983.53	4921.51
983.70	4879.00
983.86	4887.52
984.03	4848.28
984.20	4879.57
984.36	4841.97
984.53	4848.69
984.69	4792.00
984.86	4802.49
985.02	4793.56
985.19	4792.08
985.35	4772.83
985.52	4783.40
985.68	4756.86
985.85	4759.15
986.02	4744.73
986.18	4741.05
986.35	4752.43
986.51	4777.17
986.68	4743.18
986.84	4742.52
987.01	4730.64
987.17	4735.97
987.34	4720.16
987.50	4723.68
987.67	4690.01
987.83	4722.70
988.00	4687.88
988.16	4675.84
988.33	4668.63
988.49	4702.96
988.66	4665.52
988.82	4656.02
988.99	4641.84
989.15	4653.31
989.32	4598.43
989.48	4627.67
989.65	4605.14
989.81	4603.92
989.98	4575.33
990.14	4603.67
990.31	4599.57
990.47	4584.91
990.64	4577.78
990.80	4558.12
990.97	4567.71
991.13	4583.60
991.30	4557.06
991.46	4553.13
991.63	4521.51
991.79	4521.34
991.95	4505.86
992.12	4527.32
992.28	4488.16
992.45	4504.22
992.61	4480.79
992.78	4483.17
992.94	4488.08
993.11	4484.81
993.27	4465.39
993.44	4478.74
993.60	4450.89
993.76	4498.81
993.93	4477.92
994.09	4492.83
994.26	4453.43
994.42	4463.75
994.59	4435.24
994.75	4437.46
994.91	4433.36
995.08	4414.93
995.24	4371.68
995.41	4418.04
995.57	4405.34
995.74	4386.67
995.90	4374.71
996.06	4392.81
996.23	4360.54
996.39	4365.70
996.56	4372.74
996.72	4369.63
996.88	4350.30
997.05	4388.72
997.21	4351.36
997.38	4371.02
997.54	4325.80
997.70	4333.50
997.87	4340.55
998.03	4346.69
998.20	4303.27
998.36	4313.60
998.52	4290.33
998.69	4323.02
998.85	4280.34
999.02	4269.69
999.18	4249.54
999.34	4287.87
999.51	4252.65
999.67	4272.47
999.83	4244.95
1000.00	4248.63
1000.16	4243.64
1000.33	4227.58
1000.49	4232.25
1000.65	4247.41
1000.82	4247.90
1000.98	4199.07
1001.14	4214.39
1001.31	4246.18
1001.47	4225.86
1001.63	4221.03
1001.80	4198.42
1001.96	4190.72
1002.12	4182.77
1002.29	4202.51
1002.45	4174.42
1002.61	4178.35
1002.78	4139.93
1002.94	4158.20
1003.10	4149.35
1003.27	4143.12
1003.43	4143.29
1003.59	4151.89
1003.76	4140.34
1003.92	4144.76
1004.08	4123.79
1004.25	4151.64
1004.41	4136.08
1004.57	4101.75
1004.74	4087.01
1004.90	4128.30
1005.06	4096.35
1005.23	4103.23
1005.39	4069.81
1005.55	4104.21
1005.71	4081.27
1005.88	4092.66
1006.04	4072.26
1006.20	4071.20
1006.37	4038.43
1006.53	4049.08
1006.69	4066.45
1006.85	4077.01
1007.02	4030.07
1007.18	4041.30
1007.34	4040.40
1007.51	4067.27
1007.67	4042.44
1007.83	4025.65
1007.99	4004.52
1008.16	4047.36
1008.32	3992.64
1008.48	4019.83
1008.64	4017.13
1008.81	4031.55
1008.97	3980.92
1009.13	3992.23
1009.29	3979.61
1009.46	3987.72
1009.62	3993.05
1009.78	3983.30
1009.95	3993.21
1010.11	3972.49
1010.27	3940.46
1010.43	3962.16
1010.59	3963.56
1010.76	3963.97
1010.92	3927.43
1011.08	3948.32
1011.24	3932.43
1011.41	3982.40
1011.57	3937.34
1011.73	3931.28
1011.89	3930.54
1012.06	3930.54
1012.22	3919.24
1012.38	3921.53
1012.54	3902.04
1012.70	3914.24
1012.87	3889.50
1013.03	3919.57
1013.19	3900.64
1013.35	3912.85
1013.51	3858.13
1013.68	3898.60
1013.84	3866.48
1014.00	3878.93
1014.16	3869.43
1014.32	3867.79
1014.49	3843.96
1014.65	3881.64
1014.81	3824.87
1014.97	3853.38
1015.13	3837.57
1015.30	3836.58
1015.46	3849.94
1015.62	3857.31
1015.78	3835.52
1015.94	3841.01
1016.10	3824.13
1016.27	3811.43
1016.43	3817.82
1016.59	3826.10
1016.75	3803.00
1016.91	3824.38
1017.07	3790.22
1017.24	3807.83
1017.40	3778.91
1017.56	3773.34
1017.72	3779.08
1017.88	3784.48
1018.04	3763.43
1018.21	3803.08
1018.37	3777.44
1018.53	3779.32
1018.69	3768.75
1018.85	3763.43
1019.01	3742.70
1019.17	3771.79
1019.34	3749.34
1019.50	3762.45
1019.66	3752.94
1019.82	3718.95
1019.98	3741.64
1020.14	3740.74
1020.30	3741.80
1020.46	3751.71
1020.63	3728.94
1020.79	3717.39
1020.95	3726.07
1021.11	3743.69
1021.27	3710.18
1021.43	3728.45
1021.59	3734.59
1021.75	3709.69
1021.91	3675.20
1022.07	3688.64
1022.24	3692.65
1022.40	3676.92
1022.56	3664.96
1022.72	3694.45
1022.88	3677.66
1023.04	3674.30
1023.20	3669.96
1023.36	3681.67
1023.52	3657.34
1023.68	3680.69
1023.84	3637.44
1024.01	3693.47
1024.17	3660.62
1024.33	3675.20
1024.49	3676.27
1024.65	3633.59
1024.81	3655.71
1024.97	3673.65
1025.13	3635.96
1025.29	3665.70
1025.45	3623.92
1025.61	3644.65
1025.77	3626.54
1025.93	3642.52
1026.09	3631.05
1026.25	3641.12
1026.41	3617.12
1026.57	3620.81
1026.73	3628.26
1026.90	3622.86
1027.06	3615.98
1027.22	3618.76
1027.38	3623.10
1027.54	3624.50
1027.70	3605.98
1027.86	3603.20
1028.02	3592.96
1028.18	3605.57
1028.34	3596.23
1028.50	3627.53
1028.66	3610.41
1028.82	3612.62
1028.98	3592.06
1029.14	3591.65
1029.30	3595.09
1029.46	3582.88
1029.62	3574.93
1029.78	3576.24
1029.94	3596.40
1030.10	3581.24
1030.26	3553.23
1030.42	3567.40
1030.58	3582.39
1030.74	3568.54
1030.90	3534.88
1031.06	3563.79
1031.22	3539.22
1031.38	3561.58
1031.54	3543.89
1031.70	3555.68
1031.86	3538.15
1032.02	3539.71
1032.18	3526.68
1032.34	3538.56
1032.50	3508.66
1032.66	3547.49
1032.82	3531.35
1032.98	3525.95
1033.14	3535.45
1033.30	3530.70
1033.45	3515.38
1033.61	3526.19
1033.77	3517.84
1033.93	3512.84
1034.09	3502.52
1034.25	3509.15
1034.41	3496.70
1034.57	3511.28
1034.73	3491.70
1034.89	3517.26
1035.05	3498.50
1035.21	3509.81
1035.37	3482.69
1035.53	3505.88
1035.69	3494.82
1035.85	3508.66
1036.01	3484.09
1036.16	3494.98
1036.32	3471.39
1036.48	3466.39
1036.64	3456.40
1036.80	3473.03
1036.96	3465.74
1037.12	3469.34
1037.28	3467.54
1037.44	3470.98
1037.60	3463.77
1037.76	3456.48
1037.91	3458.86
1038.07	3479.99
1038.23	3451.32
1038.39	3466.88
1038.55	3451.07
1038.71	3472.13
1038.87	3431.90
1039.03	3466.47
1039.19	3448.04
1039.35	3447.88
1039.50	3460.90
1039.66	3477.78
1039.82	3439.69
1039.98	3448.78
1040.14	3404.46
1040.30	3440.10
1040.46	3429.61
1040.62	3422.73
1040.77	3450.01
1040.93	3449.93
1041.09	3417.16
1041.25	3420.52
1041.41	3426.99
1041.57	3404.87
1041.73	3404.87
1041.88	3404.87

