SpectraSuite Data File
++++++++++++++++++++++++++++++++++++
Date: Tue Sep 20 11:51:21 EDT 2022
User: Laboratoire
Dark Spectrum Present: No
Reference Spectrum Present: No
Number of Sampled Component Spectra: 1
Spectrometers: FLMT00174
Integration Time (usec): 15000 (FLMT00174)
Spectra Averaged: 25 (FLMT00174)
Boxcar Smoothing: 0 (FLMT00174)
Correct for Electrical Dark: No (FLMT00174)
Strobe/Lamp Enabled: No (FLMT00174)
Correct for Detector Non-linearity: No (FLMT00174)
Correct for Stray Light: No (FLMT00174)
Number of Pixels in Processed Spectrum: 3648
>>>>>Begin Processed Spectral Data<<<<<
345.74	3148.22
345.96	3148.22
346.18	3148.22
346.39	3166.49
346.61	3208.10
346.83	3211.54
347.05	3210.07
347.27	3205.64
347.49	3213.43
347.71	3221.21
347.93	3214.90
348.15	3213.43
348.36	3207.69
348.58	3223.18
348.80	3200.32
349.02	3209.49
349.24	3216.87
349.46	3303.29
349.68	3309.76
349.90	3328.93
350.11	3299.93
350.33	3324.84
350.55	3308.04
350.77	3329.42
350.99	3286.74
351.21	3332.13
351.43	3310.99
351.65	3318.94
351.86	3304.77
352.08	3324.59
352.30	3291.25
352.52	3322.30
352.74	3302.72
352.96	3312.14
353.18	3319.76
353.39	3310.58
353.61	3331.80
353.83	3331.31
354.05	3336.47
354.27	3322.05
354.49	3316.40
354.70	3326.39
354.92	3305.99
355.14	3313.45
355.36	3306.81
355.58	3303.29
355.80	3318.12
356.02	3326.88
356.23	3309.76
356.45	3305.83
356.67	3312.96
356.89	3312.30
357.11	3315.09
357.33	3337.37
357.54	3317.14
357.76	3312.22
357.98	3292.07
358.20	3326.56
358.42	3315.58
358.63	3322.38
358.85	3320.82
359.07	3327.79
359.29	3283.47
359.51	3305.99
359.73	3302.96
359.94	3327.38
360.16	3301.57
360.38	3302.55
360.60	3300.26
360.82	3331.06
361.03	3316.64
361.25	3323.28
361.47	3333.44
361.69	3345.64
361.91	3310.25
362.12	3313.94
362.34	3323.20
362.56	3337.12
362.78	3330.24
363.00	3338.60
363.21	3318.12
363.43	3332.29
363.65	3300.01
363.87	3321.72
364.09	3319.92
364.30	3299.11
364.52	3300.10
364.74	3334.75
364.96	3306.57
365.17	3321.89
365.39	3334.67
365.61	3316.23
365.83	3305.91
366.05	3320.74
366.26	3308.12
366.48	3315.09
366.70	3343.68
366.92	3314.60
367.13	3327.38
367.35	3327.38
367.57	3314.19
367.79	3320.17
368.01	3331.80
368.22	3330.41
368.44	3325.33
368.66	3318.69
368.88	3319.76
369.09	3332.70
369.31	3336.71
369.53	3327.46
369.75	3335.65
369.96	3338.35
370.18	3331.72
370.40	3344.09
370.62	3344.66
370.83	3324.92
371.05	3359.41
371.27	3339.99
371.49	3332.13
371.70	3346.30
371.92	3324.75
372.14	3340.40
372.36	3321.07
372.57	3359.49
372.79	3342.28
373.01	3332.95
373.22	3321.40
373.44	3333.93
373.66	3352.44
373.88	3346.71
374.09	3331.96
374.31	3341.14
374.53	3330.65
374.75	3348.02
374.96	3345.23
375.18	3347.77
375.40	3341.88
375.61	3350.23
375.83	3330.73
376.05	3350.72
376.27	3343.92
376.48	3337.70
376.70	3342.12
376.92	3333.19
377.13	3336.06
377.35	3342.61
377.57	3315.99
377.79	3340.24
378.00	3337.78
378.22	3358.01
378.44	3350.64
378.65	3364.81
378.87	3349.00
379.09	3364.24
379.30	3343.76
379.52	3365.55
379.74	3346.71
379.96	3358.42
380.17	3336.14
380.39	3342.20
380.61	3340.97
380.82	3332.29
381.04	3348.27
381.26	3356.95
381.47	3356.78
381.69	3372.02
381.91	3343.76
382.12	3377.02
382.34	3376.69
382.56	3365.63
382.77	3344.66
382.99	3368.74
383.21	3352.36
383.42	3379.80
383.64	3361.29
383.86	3364.89
384.07	3389.55
384.29	3373.91
384.51	3350.80
384.72	3378.58
384.94	3369.07
385.16	3394.63
385.37	3375.46
385.59	3401.18
385.81	3385.87
386.02	3370.22
386.24	3385.95
386.46	3395.53
386.67	3412.65
386.89	3404.46
387.11	3429.36
387.32	3402.00
387.54	3409.87
387.76	3424.94
387.97	3425.68
388.19	3439.85
388.40	3412.98
388.62	3427.89
388.84	3419.86
389.05	3438.29
389.27	3433.38
389.49	3439.44
389.70	3422.97
389.92	3437.56
390.14	3432.56
390.35	3452.88
390.57	3433.30
390.78	3450.75
391.00	3445.99
391.22	3449.27
391.43	3449.43
391.65	3454.19
391.86	3468.85
392.08	3476.47
392.30	3469.59
392.51	3463.85
392.73	3491.13
392.95	3481.55
393.16	3458.12
393.38	3487.85
393.59	3468.93
393.81	3485.89
394.03	3481.79
394.24	3483.92
394.46	3490.80
394.67	3494.41
394.89	3469.42
395.11	3490.48
395.32	3492.69
395.54	3501.21
395.75	3487.61
395.97	3483.76
396.19	3469.75
396.40	3504.16
396.62	3504.40
396.83	3494.33
397.05	3477.94
397.26	3508.01
397.48	3509.15
397.70	3500.88
397.91	3517.43
398.13	3507.60
398.34	3518.90
398.56	3536.19
398.78	3514.15
398.99	3570.76
399.21	3500.72
399.42	3543.15
399.64	3525.21
399.85	3536.43
400.07	3546.67
400.29	3541.84
400.50	3547.82
400.72	3569.28
400.93	3547.74
401.15	3555.27
401.36	3573.30
401.58	3594.92
401.79	3595.09
402.01	3616.22
402.23	3585.01
402.44	3636.05
402.66	3598.44
402.87	3624.50
403.09	3605.24
403.30	3630.56
403.52	3620.32
403.73	3625.97
403.95	3643.50
404.16	3647.84
404.38	3660.46
404.60	3649.97
404.81	3683.31
405.03	3703.63
405.24	3692.65
405.46	3728.29
405.67	3726.81
405.89	3750.81
406.10	3707.07
406.32	3745.16
406.53	3765.64
406.75	3790.87
406.96	3767.85
407.18	3789.23
407.39	3779.98
407.61	3797.43
407.82	3803.65
408.04	3827.41
408.25	3816.51
408.47	3855.18
408.68	3863.29
408.90	3837.89
409.12	3889.91
409.33	3919.73
409.55	3878.44
409.76	3916.13
409.98	3905.48
410.19	3918.42
410.41	3941.36
410.62	3951.76
410.84	3948.73
411.05	3949.79
411.27	3981.50
411.48	3972.65
411.70	3990.18
411.91	3987.64
412.12	4003.29
412.34	3963.15
412.55	3996.98
412.77	3979.04
412.98	4007.87
413.20	4014.43
413.41	3991.57
413.63	4018.36
413.84	4031.71
414.06	4038.51
414.27	4044.08
414.49	4034.66
414.70	4039.41
414.92	4058.42
415.13	4031.22
415.35	4051.62
415.56	4052.19
415.78	4038.02
415.99	4051.13
416.21	4063.83
416.42	4061.12
416.63	4074.07
416.85	4080.54
417.06	4048.26
417.28	4036.46
417.49	4070.87
417.71	4074.97
417.92	4046.38
418.14	4061.12
418.35	4076.93
418.57	4089.96
418.78	4078.65
418.99	4062.19
419.21	4092.82
419.42	4075.70
419.64	4084.55
419.85	4080.21
420.07	4108.47
420.28	4082.83
420.50	4075.21
420.71	4100.03
420.92	4109.54
421.14	4140.34
421.35	4109.70
421.57	4119.69
421.78	4128.62
422.00	4144.52
422.21	4134.77
422.42	4166.88
422.64	4135.01
422.85	4163.03
423.07	4199.16
423.28	4179.49
423.50	4186.70
423.71	4222.09
423.92	4236.76
424.14	4226.02
424.35	4233.48
424.57	4252.57
424.78	4263.54
424.99	4259.69
425.21	4278.37
425.42	4279.35
425.64	4294.34
425.85	4319.82
426.06	4328.26
426.28	4339.40
426.49	4377.16
426.71	4387.98
426.92	4395.60
427.13	4416.16
427.35	4470.80
427.56	4487.75
427.78	4494.23
427.99	4504.30
428.20	4530.68
428.42	4584.34
428.63	4580.81
428.84	4552.39
429.06	4608.18
429.27	4660.93
429.49	4665.27
429.70	4705.74
429.91	4710.41
430.13	4734.33
430.34	4770.05
430.56	4777.50
430.77	4836.07
430.98	4825.51
431.20	4853.36
431.41	4921.11
431.62	4928.56
431.84	4923.15
432.05	4992.21
432.26	5003.35
432.48	4986.15
432.69	5093.46
432.91	5074.54
433.12	5146.63
433.33	5141.71
433.55	5210.28
433.76	5238.95
433.97	5208.56
434.19	5271.14
434.40	5324.15
434.61	5346.18
434.83	5374.44
435.04	5372.97
435.25	5427.53
435.47	5464.14
435.68	5450.63
435.89	5521.16
436.11	5513.95
436.32	5550.49
436.53	5570.15
436.75	5581.45
436.96	5609.88
437.17	5582.84
437.39	5634.86
437.60	5672.63
437.81	5713.59
438.03	5704.90
438.24	5705.72
438.45	5809.27
438.67	5755.94
438.88	5806.65
439.09	5847.85
439.31	5831.80
439.52	5848.43
439.73	5843.26
439.94	5811.23
440.16	5882.83
440.37	5833.43
440.58	5913.96
440.80	5900.61
441.01	5881.19
441.22	5991.70
441.44	5968.60
441.65	5914.78
441.86	5908.55
442.08	5944.02
442.29	5938.45
442.50	5962.21
442.71	5948.53
442.93	5962.37
443.14	5952.38
443.35	6001.78
443.57	5929.61
443.78	5966.06
443.99	5985.31
444.20	5934.52
444.42	5984.33
444.63	5967.70
444.84	6012.51
445.06	6022.34
445.27	5962.87
445.48	5936.41
445.69	5989.33
445.91	5949.35
446.12	5913.71
446.33	5982.53
446.54	6023.24
446.76	5943.53
446.97	5959.51
447.18	5935.59
447.39	6010.62
447.61	6000.55
447.82	6015.29
448.03	5965.16
448.25	6020.54
448.46	6028.81
448.67	6066.17
448.88	5978.92
449.10	6067.97
449.31	6069.11
449.52	6062.32
449.73	6044.46
449.95	6114.50
450.16	6073.87
450.37	6136.12
450.58	6226.23
450.79	6077.96
451.01	6129.73
451.22	6113.43
451.43	6148.33
451.64	6206.74
451.86	6195.19
452.07	6210.34
452.28	6249.99
452.49	6353.21
452.71	6240.65
452.92	6236.31
453.13	6307.83
453.34	6335.02
453.55	6366.07
453.77	6418.99
453.98	6415.71
454.19	6392.28
454.40	6421.86
454.62	6516.47
454.83	6464.29
455.04	6598.47
455.25	6526.96
455.46	6697.84
455.68	6625.26
455.89	6629.11
456.10	6663.35
456.31	6709.80
456.52	6781.23
456.74	6766.24
456.95	6876.42
457.16	6856.85
457.37	6966.04
457.58	6968.25
457.80	6959.65
458.01	6986.52
458.22	7220.81
458.43	7131.60
458.64	7188.62
458.86	7119.72
459.07	7250.71
459.28	7270.62
459.49	7387.68
459.70	7540.13
459.91	7529.48
460.13	7490.57
460.34	7597.88
460.55	7584.45
460.76	7773.02
460.97	7800.63
461.19	7794.81
461.40	8014.44
461.61	7978.56
461.82	8022.88
462.03	8135.11
462.24	8143.30
462.46	8147.07
462.67	8213.17
462.88	8364.81
463.09	8384.14
463.30	8524.55
463.51	8479.08
463.72	8739.58
463.94	8767.85
464.15	8796.03
464.36	8802.09
464.57	9040.06
464.78	9089.21
464.99	9164.50
465.20	9149.10
465.42	9366.75
465.63	9359.95
465.84	9412.79
466.05	9596.86
466.26	9684.60
466.47	9788.31
466.68	9760.54
466.90	9999.25
467.11	9942.15
467.32	10090.18
467.53	10277.85
467.74	10127.45
467.95	10289.90
468.16	10493.87
468.37	10612.98
468.59	10596.52
468.80	10791.24
469.01	10689.82
469.22	10902.98
469.43	11159.87
469.64	11056.57
469.85	11203.62
470.06	11298.07
470.28	11477.14
470.49	11291.76
470.70	11465.27
470.91	11744.94
471.12	11620.34
471.33	11922.78
471.54	11839.96
471.75	11877.07
471.96	12154.45
472.17	12146.34
472.39	12455.91
472.60	12193.44
472.81	12502.03
473.02	12460.58
473.23	12626.06
473.44	12723.46
473.65	12700.52
473.86	12793.50
474.07	12813.08
474.28	12890.98
474.49	13211.36
474.71	13092.17
474.92	13199.73
475.13	13144.19
475.34	13242.08
475.55	13280.59
475.76	13315.65
475.97	13596.63
476.18	13544.77
476.39	13695.67
476.60	13793.97
476.81	13770.05
477.02	13900.47
477.23	13885.23
477.44	13870.16
477.65	13987.71
477.87	14125.17
478.08	14131.72
478.29	14117.14
478.50	14406.89
478.71	14208.32
478.92	14365.85
479.13	14382.23
479.34	14418.11
479.55	14473.65
479.76	14413.93
479.97	14462.59
480.18	14824.43
480.39	14513.63
480.60	14821.07
480.81	14787.07
481.02	14800.01
481.23	14782.32
481.44	14981.30
481.65	15043.07
481.86	15171.84
482.07	14837.29
482.28	15395.24
482.49	15145.88
482.71	15126.54
482.92	15255.89
483.13	15416.04
483.34	15255.32
483.55	15390.24
483.76	15417.52
483.97	15552.68
484.18	15531.63
484.39	15613.47
484.60	15533.68
484.81	15807.86
485.02	15675.07
485.23	15856.36
485.44	15867.50
485.65	16031.17
485.86	15865.61
486.07	16178.87
486.28	16086.96
486.49	16222.62
486.70	16295.61
486.91	16414.96
487.12	16283.40
487.33	16294.38
487.54	16577.49
487.75	16569.05
487.96	16584.29
488.17	16585.43
488.38	16785.15
488.59	16787.61
488.80	16877.06
489.01	16909.34
489.22	17094.64
489.43	17102.83
489.64	16982.41
489.85	17425.02
490.06	17100.87
490.26	17401.43
490.47	17327.54
490.68	17523.32
490.89	17794.47
491.10	17543.06
491.31	17796.93
491.52	18010.66
491.73	17930.70
491.94	17988.62
492.15	18190.71
492.36	18237.49
492.57	18287.46
492.78	18358.40
492.99	18397.48
493.20	18636.68
493.41	18657.98
493.62	18818.87
493.83	18853.60
494.04	18946.33
494.25	19166.69
494.46	19231.66
494.67	19197.66
494.88	19449.56
495.08	19498.46
495.29	19665.99
495.50	19914.61
495.71	19856.86
495.92	20121.05
496.13	20149.31
496.34	20168.72
496.55	20339.28
496.76	20684.65
496.97	20458.80
497.18	20826.86
497.39	20749.28
497.60	21239.81
497.81	21043.53
498.02	21355.97
498.22	21214.66
498.43	21634.25
498.64	21723.54
498.85	21846.58
499.06	22040.16
499.27	22380.37
499.48	22047.04
499.69	22430.58
499.90	22664.21
500.11	22833.95
500.32	23152.61
500.52	23032.19
500.73	23542.71
500.94	23665.26
501.15	23830.82
501.36	23934.45
501.57	23932.81
501.78	24243.69
501.99	24572.10
502.20	24634.44
502.41	24781.16
502.61	24805.49
502.82	25250.39
503.03	25131.28
503.24	25700.29
503.45	25587.81
503.66	26006.34
503.87	26130.77
504.08	26493.59
504.28	26435.84
504.49	26672.83
504.70	26898.19
504.91	27178.02
505.12	27054.49
505.33	27709.51
505.54	27824.03
505.75	27956.82
505.95	28278.84
506.16	28334.55
506.37	28291.62
506.58	28894.05
506.79	28645.43
507.00	29304.22
507.21	29137.27
507.41	29232.13
507.62	29545.80
507.83	30102.93
508.04	29824.41
508.25	30401.52
508.46	30251.86
508.67	30838.56
508.87	30692.42
509.08	31295.99
509.29	31252.74
509.50	31546.91
509.71	31776.37
509.92	31879.50
510.12	31889.00
510.33	32145.00
510.54	32193.90
510.75	32527.15
510.96	32920.44
511.17	33115.00
511.37	33086.90
511.58	33367.88
511.79	33291.21
512.00	33393.03
512.21	33991.61
512.42	34041.50
512.62	34185.19
512.83	34499.92
513.04	34381.46
513.25	34763.37
513.46	34169.21
513.66	35195.90
513.87	34879.04
514.08	35247.10
514.29	35070.89
514.50	35203.52
514.71	35504.41
514.91	35415.93
515.12	35466.40
515.33	35801.61
515.54	35637.77
515.75	36105.03
515.95	35851.66
516.16	35857.97
516.37	36331.21
516.58	36396.58
516.78	36152.55
516.99	36347.60
517.20	36397.32
517.41	36400.19
517.62	36544.61
517.82	36453.52
518.03	36917.59
518.24	37209.95
518.45	36579.67
518.66	37035.47
518.86	36759.89
519.07	37061.93
519.28	36451.63
519.49	37027.60
519.69	36968.21
519.90	37012.37
520.11	37012.69
520.32	36816.25
520.52	37220.19
520.73	36693.87
520.94	37230.52
521.15	37041.20
521.36	36597.04
521.56	37267.46
521.77	36565.83
521.98	37110.75
522.19	36634.15
522.39	36854.92
522.60	36694.52
522.81	36807.90
523.02	36397.32
523.22	36654.46
523.43	36707.46
523.64	36547.80
523.84	36554.03
524.05	36758.25
524.26	36628.33
524.47	36361.36
524.67	36475.80
524.88	36497.67
525.09	36690.02
525.30	36275.10
525.50	36154.92
525.71	36166.88
525.92	36134.03
526.13	36335.14
526.33	36049.41
526.54	35747.29
526.75	36039.74
526.95	36183.27
527.16	35509.24
527.37	36008.78
527.58	35961.35
527.78	35825.45
527.99	36034.42
528.20	36058.75
528.40	35609.10
528.61	35482.78
528.82	35848.87
529.03	35592.55
529.23	35474.75
529.44	35596.40
529.65	35464.43
529.85	35487.69
530.06	35302.07
530.27	35295.68
530.47	34811.21
530.68	35557.49
530.89	34848.24
531.09	35261.02
531.30	35027.97
531.51	34738.14
531.72	35110.05
531.92	35035.99
532.13	35130.45
532.34	34941.30
532.54	34883.87
532.75	34997.57
532.96	34892.72
533.16	35002.24
533.37	35041.07
533.58	34738.14
533.78	34967.84
533.99	34964.72
534.20	34642.95
534.40	34899.68
534.61	34941.71
534.82	34962.92
535.02	34840.70
535.23	34859.21
535.44	35036.98
535.64	34818.01
535.85	34965.71
536.06	34910.33
536.26	34809.65
536.47	34900.50
536.68	35320.99
536.88	34795.32
537.09	35279.21
537.29	34690.95
537.50	35415.52
537.71	35026.90
537.91	35179.11
538.12	35233.66
538.33	34971.93
538.53	35136.26
538.74	35233.91
538.95	35247.67
539.15	35143.55
539.36	35416.10
539.56	35668.08
539.77	35318.37
539.98	35350.89
540.18	35564.29
540.39	35400.37
540.60	35657.76
540.80	35781.62
541.01	35781.78
541.21	35823.81
541.42	35958.32
541.63	35912.44
541.83	36203.25
542.04	36145.75
542.25	36085.21
542.45	36277.80
542.66	36363.24
542.86	36538.47
543.07	35806.60
543.28	36603.84
543.48	36506.27
543.69	36807.49
543.89	36668.96
544.10	37122.46
544.31	36975.01
544.51	36941.26
544.72	37201.84
544.92	37151.55
545.13	37602.18
545.33	37558.85
545.54	37364.45
545.75	37732.68
545.95	37762.33
546.16	37798.54
546.36	38303.24
546.57	37643.14
546.78	37173.34
546.98	37785.02
547.19	37220.52
547.39	38290.22
547.60	38587.66
547.80	39117.10
548.01	39201.97
548.22	39030.68
548.42	39184.11
548.63	39534.32
548.83	39412.34
549.04	39913.11
549.24	39664.81
549.45	40098.65
549.65	40454.76
549.86	39998.63
550.07	40305.58
550.27	40769.08
550.48	40858.45
550.68	40892.12
550.89	40971.42
551.09	41305.48
551.30	41237.41
551.50	41645.53
551.71	41547.80
551.91	41731.38
552.12	42031.20
552.33	42474.87
552.53	42129.50
552.74	42763.39
552.94	42961.80
553.15	42869.15
553.35	43270.22
553.56	42999.40
553.76	43593.96
553.97	43361.40
554.17	43773.94
554.38	44482.29
554.58	44136.35
554.79	44723.46
554.99	44379.97
555.20	44584.44
555.40	45245.36
555.61	45092.09
555.81	44962.01
556.02	45959.29
556.22	45874.34
556.43	45785.86
556.63	46031.29
556.84	46091.67
557.04	46718.43
557.25	46318.01
557.45	47015.30
557.66	47118.93
557.86	47215.10
558.07	47859.15
558.27	47564.16
558.48	47841.12
558.68	48078.85
558.89	48405.63
559.09	48578.80
559.30	48535.30
559.50	48934.08
559.71	48689.72
559.91	49533.56
560.12	49290.76
560.32	49489.49
560.53	49858.45
560.73	49798.00
560.94	50365.04
561.14	50074.72
561.35	50816.58
561.55	50668.88
561.76	50942.49
561.96	50507.91
562.17	51219.45
562.37	51602.50
562.57	51484.05
562.78	51623.97
562.98	52018.73
563.19	52153.74
563.39	52484.20
563.60	52727.58
563.80	52262.52
564.01	53136.52
564.21	52788.93
564.42	52921.31
564.62	53260.46
564.82	53684.72
565.03	53364.50
565.23	53491.47
565.44	53760.49
565.64	53644.00
565.85	54164.68
566.05	53965.37
566.25	54416.91
566.46	54096.03
566.66	54499.15
566.87	54547.98
567.07	54696.00
567.28	54969.45
567.48	55298.51
567.68	54548.14
567.89	55639.46
568.09	55189.56
568.30	55211.11
568.50	55699.43
568.71	55612.10
568.91	55968.69
569.11	55547.06
569.32	55711.71
569.52	56002.28
569.73	55471.45
569.93	56059.21
570.13	55923.64
570.34	55861.05
570.54	56364.28
570.75	56043.81
570.95	56202.16
571.15	56138.59
571.36	56645.34
571.56	55994.25
571.77	56014.32
571.97	55578.76
572.17	56384.76
572.38	56238.78
572.58	56491.01
572.79	56205.19
572.99	56379.76
573.19	56339.46
573.40	56253.28
573.60	56405.81
573.81	56124.50
574.01	56428.75
574.21	56242.55
574.42	56184.30
574.62	55915.28
574.82	56370.09
575.03	55892.67
575.23	56409.17
575.43	55896.77
575.64	55779.21
575.84	56116.06
576.05	55635.61
576.25	55869.98
576.45	55580.89
576.66	56036.93
576.86	55502.08
577.06	55827.30
577.27	55576.30
577.47	55569.17
577.67	55412.96
577.88	54909.89
578.08	55513.55
578.28	55445.40
578.49	55158.19
578.69	55230.19
578.89	54873.11
579.10	54900.64
579.30	55425.00
579.50	54692.07
579.71	54244.71
579.91	54748.92
580.11	54274.04
580.32	54238.90
580.52	54177.78
580.72	54649.47
580.93	53920.64
581.13	53832.01
581.33	54194.09
581.54	53596.65
581.74	53541.36
581.94	53634.58
582.15	53857.97
582.35	53333.94
582.55	53389.15
582.76	52963.42
582.96	53371.29
583.16	52836.69
583.37	52979.31
583.57	52428.16
583.77	52965.39
583.97	51844.25
584.18	52872.90
584.38	52522.29
584.58	52043.56
584.79	52448.73
584.99	52187.49
585.19	51930.84
585.40	51704.74
585.60	51879.72
585.80	51285.97
586.00	51579.08
586.21	51231.66
586.41	51245.09
586.61	51491.18
586.82	51217.57
587.02	50900.71
587.22	51183.98
587.42	50433.28
587.63	50946.25
587.83	50110.85
588.03	50422.22
588.23	49931.20
588.44	50110.68
588.64	49820.77
588.84	50000.01
589.05	50116.50
589.25	50023.03
589.45	49824.21
589.65	49493.83
589.86	49746.14
590.06	49544.38
590.26	49142.40
590.46	49384.39
590.67	48655.72
590.87	49298.95
591.07	49323.20
591.27	48762.79
591.48	49027.88
591.68	48439.38
591.88	49270.36
592.08	48373.02
592.29	48653.18
592.49	48427.01
592.69	48565.45
592.89	48160.85
593.10	48141.52
593.30	47949.67
593.50	48373.43
593.70	47330.93
593.90	48037.48
594.11	47689.90
594.31	47666.23
594.51	47843.99
594.71	47885.77
594.92	47720.13
595.12	47437.67
595.32	47548.67
595.52	47676.47
595.72	46977.70
595.93	47613.72
596.13	47324.38
596.33	46938.62
596.53	47315.12
596.73	47044.46
596.94	46964.76
597.14	47208.87
597.34	46918.31
597.54	47121.55
597.74	46691.97
597.95	46820.42
598.15	46830.41
598.35	46916.83
598.55	46907.99
598.75	46638.56
598.96	47071.50
599.16	46600.22
599.36	46742.02
599.56	46596.04
599.76	46390.67
599.97	46779.95
600.17	46557.78
600.37	46642.90
600.57	46028.83
600.77	46859.41
600.97	46531.73
601.18	46892.67
601.38	46585.47
601.58	46723.92
601.78	46568.02
601.98	46311.78
602.18	46611.93
602.39	46931.33
602.59	46666.00
602.79	46531.73
602.99	46536.49
603.19	46519.04
603.39	46356.84
603.60	46345.94
603.80	46436.87
604.00	46364.54
604.20	46472.67
604.40	46613.82
604.60	46461.61
604.80	46522.89
605.01	46604.64
605.21	46446.29
605.41	46529.93
605.61	46241.91
605.81	46689.10
606.01	46939.77
606.21	46465.22
606.42	46738.99
606.62	46439.49
606.82	46990.64
607.02	46653.22
607.22	46825.82
607.42	47119.17
607.62	46520.02
607.82	47008.34
608.03	46928.79
608.23	46884.64
608.43	46678.61
608.63	47127.28
608.83	47062.98
609.03	47064.37
609.23	47261.96
609.43	47330.20
609.63	47069.28
609.84	46985.97
610.04	47574.15
610.24	47479.45
610.44	47635.34
610.64	47461.76
610.84	47833.26
611.04	48211.89
611.24	47929.84
611.44	47341.58
611.64	47978.01
611.85	47982.84
612.05	48045.35
612.25	48165.28
612.45	47892.81
612.65	48245.47
612.85	48429.96
613.05	48108.01
613.25	48642.45
613.45	48499.59
613.65	48679.56
613.85	48392.03
614.05	48818.82
614.25	49029.93
614.46	48792.77
614.66	48650.81
614.86	48577.08
615.06	48941.70
615.26	49398.07
615.46	48664.98
615.66	49472.21
615.86	49492.85
616.06	49228.99
616.26	49382.51
616.46	50007.87
616.66	49570.35
616.86	50085.37
617.06	49796.69
617.26	50509.38
617.46	50215.13
617.66	50112.16
617.86	50098.07
618.07	50474.32
618.27	50441.88
618.47	50498.24
618.67	50679.12
618.87	50893.66
619.07	50729.25
619.27	50726.06
619.47	50926.92
619.67	51537.38
619.87	51121.31
620.07	51644.86
620.27	51716.54
620.47	51459.15
620.67	51793.05
620.87	51851.05
621.07	52062.89
621.27	52066.57
621.47	51830.98
621.67	52243.44
621.87	52040.52
622.07	52622.39
622.27	52529.50
622.47	52332.65
622.67	52682.03
622.87	52190.35
623.07	52804.83
623.27	53364.74
623.47	52631.65
623.67	53215.98
623.87	53626.14
624.07	53644.90
624.27	53374.24
624.47	53709.70
624.67	53697.33
624.87	54038.03
625.07	53770.89
625.27	54451.56
625.47	54191.71
625.67	54078.74
625.87	54407.57
626.07	54482.69
626.27	54762.68
626.47	54782.10
626.67	54687.48
626.87	54502.84
627.07	55123.29
627.27	55128.21
627.47	55411.81
627.67	55323.66
627.87	55377.48
628.07	55881.94
628.27	55655.68
628.47	55561.64
628.67	56219.04
628.86	56435.47
629.06	56140.56
629.26	56133.10
629.46	56651.65
629.66	56623.14
629.86	56188.56
630.06	56760.52
630.26	56730.78
630.46	57151.93
630.66	56738.65
630.86	56925.01
631.06	57171.26
631.26	56874.06
631.46	57626.81
631.66	57597.24
631.86	57324.61
632.06	57924.42
632.26	57574.71
632.45	57790.81
632.65	57951.86
632.85	58063.03
633.05	58056.72
633.25	58341.63
633.45	58038.04
633.65	58411.92
633.85	59023.20
634.05	58147.81
634.25	58471.23
634.45	58603.77
634.65	58898.76
634.84	58590.42
635.04	58858.21
635.24	58548.89
635.44	59046.87
635.64	58820.53
635.84	59151.32
636.04	59070.63
636.24	59163.52
636.44	59389.70
636.64	58813.32
636.84	59799.29
637.03	59104.79
637.23	59590.73
637.43	59648.32
637.63	59507.09
637.83	59730.97
638.03	59870.97
638.23	59416.98
638.43	59903.09
638.62	60307.60
638.82	59121.25
639.02	60165.47
639.22	59771.77
639.42	60169.81
639.62	59697.88
639.82	59971.90
640.02	60096.58
640.21	60265.99
640.41	59595.07
640.61	60156.79
640.81	60220.11
641.01	60051.93
641.21	59984.60
641.41	60631.67
641.61	60019.41
641.80	60110.42
642.00	60437.61
642.20	60503.39
642.40	59739.41
642.60	60247.31
642.80	60449.40
642.99	59986.48
643.19	60366.42
643.39	59842.38
643.59	60225.27
643.79	60070.20
643.99	60345.77
644.19	60117.14
644.38	59698.29
644.58	60136.47
644.78	59863.76
644.98	59914.31
645.18	60054.96
645.38	60399.92
645.57	59899.32
645.77	59946.67
645.97	59756.53
646.17	60043.99
646.37	59894.32
646.56	59620.30
646.76	59648.24
646.96	59636.44
647.16	59263.87
647.36	59435.00
647.55	59224.47
647.75	59293.94
647.95	58952.91
648.15	59220.05
648.35	59130.18
648.55	59213.00
648.74	58920.22
648.94	58922.44
649.14	59109.54
649.34	58615.24
649.54	58497.44
649.73	58579.52
649.93	58164.85
650.13	58524.56
650.33	58035.50
650.52	58522.75
650.72	58750.24
650.92	58209.09
651.12	57869.62
651.32	58290.27
651.51	58208.11
651.71	58170.91
651.91	57692.18
652.11	57472.64
652.30	57161.51
652.50	57669.65
652.70	57606.33
652.90	57189.69
653.10	57406.37
653.29	57130.14
653.49	57374.99
653.69	56797.79
653.89	56913.71
654.08	56807.87
654.28	57149.63
654.48	56778.95
654.68	56821.38
654.87	56652.14
655.07	56279.08
655.27	56694.90
655.47	56223.05
655.66	56083.95
655.86	55804.69
656.06	56216.58
656.26	55251.82
656.45	55503.56
656.65	55358.07
656.85	55263.95
657.04	54845.59
657.24	54775.14
657.44	54610.48
657.64	55165.48
657.83	54065.06
658.03	54671.34
658.23	54321.47
658.43	54104.79
658.62	54159.52
658.82	53943.74
659.02	53817.26
659.21	53852.65
659.41	53464.11
659.61	53800.14
659.81	53336.48
660.00	52948.18
660.20	53134.39
660.40	52815.23
660.59	52911.32
660.79	52476.82
660.99	52764.03
661.19	52608.88
661.38	52532.04
661.58	51817.87
661.78	52078.29
661.97	51726.04
662.17	52263.34
662.37	51528.78
662.56	51390.99
662.76	51334.30
662.96	51420.89
663.15	51537.30
663.35	51277.21
663.55	50894.81
663.74	50602.11
663.94	50996.80
664.14	50277.55
664.33	50586.96
664.53	50257.89
664.73	50595.72
664.93	49835.27
665.12	50298.36
665.32	49905.31
665.52	49885.57
665.71	49517.92
665.91	49632.11
666.10	49225.88
666.30	49513.90
666.50	49003.14
666.69	48931.87
666.89	49121.10
667.09	49254.06
667.28	48763.04
667.48	48557.34
667.68	48436.67
667.87	48519.00
668.07	48008.81
668.27	48387.03
668.46	48128.66
668.66	47770.02
668.86	48143.16
669.05	47611.51
669.25	47799.75
669.44	47455.86
669.64	47322.99
669.84	47330.69
670.03	47628.13
670.23	47156.94
670.43	47049.13
670.62	46906.27
670.82	46805.10
671.01	46945.92
671.21	46525.02
671.41	46457.35
671.60	46556.80
671.80	46840.32
672.00	46326.69
672.19	46622.01
672.39	46357.98
672.58	46252.31
672.78	46008.93
672.98	46218.31
673.17	45986.48
673.37	45292.30
673.56	45403.22
673.76	45447.05
673.96	45590.24
674.15	45278.95
674.35	45298.37
674.54	45194.00
674.74	45001.49
674.94	44960.61
675.13	45028.85
675.33	44463.86
675.52	45035.98
675.72	44744.10
675.91	44652.76
676.11	44943.49
676.31	44343.03
676.50	44398.32
676.70	44266.76
676.89	44312.80
677.09	44366.38
677.28	44311.57
677.48	43787.62
677.68	44076.38
677.87	43688.25
678.07	43527.61
678.26	43641.97
678.46	43736.17
678.65	43459.29
678.85	43659.83
679.04	43139.31
679.24	43308.23
679.44	43128.58
679.63	43325.60
679.83	43107.12
680.02	43133.01
680.22	42780.10
680.41	42963.03
680.61	42652.80
680.80	42554.82
681.00	42669.59
681.19	42620.28
681.39	42423.75
681.59	42206.10
681.78	42159.40
681.98	42472.58
682.17	41942.15
682.37	42353.63
682.56	41905.78
682.76	42368.30
682.95	42027.27
683.15	42027.76
683.34	41788.23
683.54	41887.51
683.73	41885.79
683.93	41520.52
684.12	41758.66
684.32	41776.76
684.51	41289.10
684.71	41584.33
684.90	41321.95
685.10	41350.95
685.29	41231.35
685.49	41370.20
685.68	41357.66
685.88	41265.42
686.07	40938.57
686.27	41426.15
686.46	41264.77
686.66	41063.00
686.85	41282.71
687.05	40976.41
687.24	40971.17
687.44	41135.75
687.63	41001.89
687.83	40530.28
688.02	40896.05
688.22	41048.50
688.41	40755.64
688.61	40752.37
688.80	40871.80
689.00	40434.93
689.19	40328.76
689.39	40824.45
689.58	40715.67
689.77	40598.36
689.97	40678.56
690.16	40419.69
690.36	40081.78
690.55	39969.30
690.75	40565.02
690.94	40126.67
691.14	40236.77
691.33	39826.60
691.53	40213.34
691.72	40075.31
691.91	40151.57
692.11	40137.24
692.30	40241.77
692.50	40320.98
692.69	39977.58
692.89	40027.79
693.08	39900.41
693.28	39788.67
693.47	39954.64
693.66	39886.89
693.86	39942.03
694.05	39838.32
694.25	39933.67
694.44	40065.07
694.64	39898.20
694.83	39967.83
695.02	39957.18
695.22	40123.48
695.41	39806.53
695.61	39607.22
695.80	39677.67
695.99	39667.43
696.19	39686.11
696.38	39668.42
696.58	39286.92
696.77	39881.98
696.96	39711.18
697.16	39573.64
697.35	39618.69
697.55	39599.52
697.74	39499.66
697.93	39905.33
698.13	39545.79
698.32	39803.67
698.52	39556.52
698.71	39092.94
698.90	39796.70
699.10	39361.39
699.29	39413.65
699.49	39901.64
699.68	39614.68
699.87	39604.28
700.07	39901.80
700.26	39721.09
700.45	39668.58
700.65	39397.27
700.84	39767.05
701.04	39342.71
701.23	39716.01
701.42	39428.97
701.62	39338.04
701.81	39509.99
702.00	39430.69
702.20	39220.65
702.39	39512.85
702.58	39775.73
702.78	39561.35
702.97	39653.10
703.17	39722.16
703.36	39725.02
703.55	39495.73
703.75	39468.70
703.94	39634.26
704.13	39395.63
704.33	39346.39
704.52	39716.91
704.71	39602.72
704.91	39760.33
705.10	39655.47
705.29	39759.27
705.49	39835.86
705.68	39985.44
705.87	39949.56
706.07	39537.68
706.26	39992.16
706.45	39482.46
706.65	39345.17
706.84	39839.71
707.03	40120.77
707.23	39526.78
707.42	39521.86
707.61	39922.94
707.80	39592.07
708.00	39728.96
708.19	39663.91
708.38	40121.51
708.58	39491.15
708.77	40115.86
708.96	39744.52
709.16	39663.99
709.35	40396.10
709.54	39909.42
709.74	39868.05
709.93	39630.82
710.12	40254.46
710.31	40420.51
710.51	40000.60
710.70	40038.94
710.89	40163.62
711.09	39662.68
711.28	39736.00
711.47	40024.44
711.66	39956.36
711.86	39949.73
712.05	40067.69
712.24	40288.30
712.43	39891.65
712.63	39545.87
712.82	40144.53
713.01	40007.56
713.21	39704.38
713.40	39868.05
713.59	40228.25
713.78	39745.91
713.98	40259.71
714.17	40033.86
714.36	40117.09
714.55	39749.27
714.75	39924.25
714.94	40001.83
715.13	40238.65
715.32	39875.18
715.52	40182.46
715.71	39965.95
715.90	40060.32
716.09	39962.51
716.29	40468.52
716.48	40399.87
716.67	39938.59
716.86	40317.46
717.06	40290.67
717.25	40424.86
717.44	40509.40
717.63	40558.55
717.82	40053.35
718.02	40339.66
718.21	40574.11
718.40	40657.83
718.59	40501.37
718.79	40236.44
718.98	40209.65
719.17	40476.96
719.36	40583.04
719.55	40461.72
719.75	40344.57
719.94	40448.61
720.13	40762.11
720.32	40596.07
720.51	40325.24
720.71	40406.18
720.90	40084.32
721.09	40371.53
721.28	40189.75
721.47	40676.43
721.67	40547.08
721.86	40529.63
722.05	40608.35
722.24	40223.58
722.43	40827.65
722.63	40508.08
722.82	40616.79
723.01	40650.21
723.20	40297.39
723.39	40380.86
723.58	40714.19
723.78	40213.83
723.97	40829.45
724.16	40468.11
724.35	40540.20
724.54	40434.77
724.73	40713.13
724.93	40451.56
725.12	40697.32
725.31	40035.74
725.50	40533.73
725.69	40669.71
725.88	40450.41
726.08	40024.76
726.27	40569.20
726.46	39945.14
726.65	40865.66
726.84	40154.61
727.03	40421.50
727.23	40738.85
727.42	40327.95
727.61	40365.79
727.80	40207.12
727.99	40267.33
728.18	40482.44
728.37	40259.30
728.56	40164.11
728.76	39950.96
728.95	40320.49
729.14	40195.89
729.33	40182.38
729.52	40272.32
729.71	40280.84
729.90	40227.27
730.09	39956.36
730.29	40300.17
730.48	39881.24
730.67	40352.19
730.86	39963.65
731.05	40358.17
731.24	40110.61
731.43	40154.44
731.62	39864.94
731.81	39907.54
732.01	40426.49
732.20	39992.73
732.39	40384.14
732.58	40252.50
732.77	39648.02
732.96	40188.85
733.15	40264.46
733.34	39949.97
733.53	40000.35
733.72	40133.14
733.92	40057.70
734.11	39901.80
734.30	39968.24
734.49	40221.78
734.68	39986.18
734.87	39879.03
735.06	39842.82
735.25	39906.88
735.44	39527.68
735.63	39628.60
735.82	39699.38
736.01	39498.68
736.20	39414.47
736.40	39780.24
736.59	39547.75
736.78	39793.51
736.97	39507.61
737.16	39581.17
737.35	39714.37
737.54	39656.54
737.73	39469.03
737.92	39647.94
738.11	39755.91
738.30	39501.79
738.49	39320.59
738.68	39214.42
738.87	39401.44
739.06	39171.83
739.25	39333.29
739.44	39295.11
739.63	39097.28
739.82	38902.48
740.01	39153.48
740.20	38807.86
740.39	38897.48
740.59	38890.52
740.78	38865.61
740.97	38725.53
741.16	38511.48
741.35	38631.57
741.54	38502.30
741.73	38584.22
741.92	38446.52
742.11	38393.43
742.30	38570.21
742.49	38151.04
742.68	38569.97
742.87	38414.16
743.06	37973.85
743.25	38309.96
743.44	37989.57
743.63	38271.62
743.82	37874.15
744.01	37960.74
744.20	37657.97
744.39	37940.26
744.58	37677.79
744.77	37528.78
744.96	37252.80
745.15	37660.59
745.34	37330.29
745.53	37508.06
745.72	37170.55
745.91	37297.61
746.10	37010.32
746.29	37301.62
746.48	37146.14
746.67	37088.63
746.86	37023.75
747.04	37052.59
747.23	36766.53
747.42	37052.51
747.61	36612.52
747.80	37128.77
747.99	36418.95
748.18	36829.20
748.37	36612.68
748.56	36206.53
748.75	36344.89
748.94	36258.96
749.13	36283.13
749.32	35977.73
749.51	36009.11
749.70	36059.32
749.89	35811.27
750.08	35914.57
750.27	35468.20
750.46	35684.46
750.65	35993.21
750.84	35432.48
751.02	35549.30
751.21	35500.64
751.40	35474.26
751.59	35539.38
751.78	35314.52
751.97	35451.98
752.16	35160.51
752.35	35445.34
752.54	35003.88
752.73	35277.41
752.92	34895.09
753.11	34826.61
753.30	34852.25
753.49	34919.01
753.67	34679.98
753.86	34411.61
754.05	34570.70
754.24	34332.97
754.43	34349.84
754.62	34303.15
754.81	33988.42
755.00	34163.72
755.19	33949.26
755.38	33716.53
755.56	33936.64
755.75	34070.58
755.94	33648.62
756.13	33618.80
756.32	33664.59
756.51	33481.09
756.70	33514.27
756.89	33433.91
757.08	33270.07
757.26	33260.65
757.45	33222.48
757.64	33042.91
757.83	33266.55
758.02	32883.09
758.21	32815.67
758.40	32898.90
758.59	32771.76
758.77	32523.55
758.96	32631.02
759.15	32662.81
759.34	32152.29
759.53	32292.62
759.72	32237.16
759.91	31950.36
760.09	32039.16
760.28	32157.21
760.47	31677.16
760.66	32043.75
760.85	31535.61
761.04	31886.87
761.23	31684.04
761.41	31579.51
761.60	31572.06
761.79	31377.91
761.98	31094.72
762.17	31434.44
762.36	31027.22
762.54	31251.68
762.73	30956.19
762.92	30818.49
763.11	31129.45
763.30	31151.73
763.49	31031.81
763.67	30835.12
763.86	30871.41
764.05	30854.78
764.24	30683.65
764.43	30867.15
764.61	30361.46
764.80	30384.65
764.99	30741.32
765.18	30174.44
765.37	30239.57
765.55	30238.83
765.74	30009.38
765.93	29816.54
766.12	29894.28
766.31	29858.07
766.49	29754.45
766.68	29777.79
766.87	29613.30
767.06	29363.61
767.25	29494.19
767.43	29428.90
767.62	29155.54
767.81	29301.11
768.00	29092.46
768.19	28958.36
768.37	29070.42
768.56	29063.30
768.75	29001.86
768.94	29029.71
769.12	28725.47
769.31	28726.86
769.50	28642.97
769.69	28686.80
769.88	28213.06
770.06	28669.43
770.25	28215.93
770.44	28141.96
770.63	28296.05
770.81	28176.77
771.00	27958.05
771.19	28016.95
771.38	27990.00
771.56	28063.32
771.75	27465.23
771.94	27758.09
772.13	27687.96
772.31	27477.43
772.50	27720.16
772.69	27478.01
772.88	27704.68
773.06	27280.99
773.25	27436.88
773.44	27372.25
773.62	27146.32
773.81	27256.17
774.00	27056.12
774.19	27182.20
774.37	27032.04
774.56	27275.67
774.75	26791.36
774.94	26998.62
775.12	26752.62
775.31	26842.73
775.50	26702.07
775.68	26643.01
775.87	26504.07
776.06	26369.73
776.25	26513.17
776.43	26269.95
776.62	26468.69
776.81	26112.50
776.99	26231.20
777.18	26121.84
777.37	25845.37
777.55	25946.94
777.74	26042.13
777.93	25977.58
778.12	25905.08
778.30	25740.84
778.49	25721.18
778.68	25798.67
778.86	25608.21
779.05	25752.14
779.24	25665.39
779.42	25485.82
779.61	25416.77
779.80	25458.38
779.98	25524.41
780.17	25605.10
780.36	25341.97
780.54	25481.65
780.73	24991.28
780.92	25337.06
781.10	25056.90
781.29	24972.93
781.48	24813.76
781.66	24851.86
781.85	24858.65
782.04	24640.83
782.22	24752.82
782.41	24634.77
782.60	24805.82
782.78	24651.89
782.97	24786.24
783.16	24388.52
783.34	24495.75
783.53	24441.77
783.71	24331.18
783.90	24300.13
784.09	24237.71
784.27	24164.47
784.46	24140.55
784.65	24161.44
784.83	23982.94
785.02	23967.30
785.20	24164.31
785.39	23669.60
785.58	24071.82
785.76	23919.87
785.95	23828.28
786.14	23844.50
786.32	23857.93
786.51	23833.36
786.69	23995.31
786.88	23879.15
787.07	23822.87
787.25	23817.88
787.44	23804.61
787.62	23631.35
787.81	23773.48
788.00	23691.23
788.18	23511.09
788.37	23464.23
788.55	23830.16
788.74	23477.01
788.93	23573.10
789.11	23674.93
789.30	23571.71
789.48	23326.28
789.67	23568.02
789.86	23415.66
790.04	23491.76
790.23	23380.35
790.41	23291.30
790.60	23431.71
790.78	23368.72
790.97	23169.49
791.16	23318.34
791.34	23515.10
791.53	23092.24
791.71	23412.54
791.90	23186.61
792.08	23202.34
792.27	23235.43
792.46	23156.71
792.64	23246.41
792.83	23133.85
793.01	23199.96
793.20	23109.69
793.38	23104.53
793.57	23077.41
793.75	23132.63
793.94	23184.89
794.12	23328.17
794.31	23063.32
794.50	23273.12
794.68	23353.97
794.87	23145.00
795.05	23373.14
795.24	23124.84
795.42	23063.00
795.61	23378.87
795.79	23273.61
795.98	23030.47
796.16	23207.09
796.35	23242.81
796.53	23031.05
796.72	23247.07
796.90	23174.00
797.09	23101.09
797.27	23083.80
797.46	23023.26
797.64	23147.45
797.83	23125.50
798.01	23160.64
798.20	23235.84
798.38	23091.91
798.57	23255.83
798.75	23154.58
798.94	22867.37
799.12	23355.45
799.31	23150.48
799.49	23057.59
799.68	22983.12
799.86	22991.81
800.05	23018.10
800.23	22918.33
800.42	22912.35
800.60	23074.63
800.79	22808.31
800.97	22921.85
801.16	23032.36
801.34	22797.25
801.53	22742.12
801.71	22845.34
801.90	22677.81
802.08	22910.63
802.27	22774.81
802.45	22698.05
802.64	22785.70
802.82	22897.93
803.00	22638.98
803.19	22749.49
803.37	22912.35
803.56	22731.96
803.74	22715.99
803.93	22736.96
804.11	22594.67
804.30	22538.22
804.48	22661.35
804.67	22670.69
804.85	22544.29
805.03	22757.85
805.22	22544.70
805.40	22413.87
805.59	22629.89
805.77	22661.10
805.96	22483.26
806.14	22455.49
806.32	22558.54
806.51	22798.23
806.69	22517.09
806.88	22498.25
807.06	22478.75
807.25	22507.67
807.43	22431.16
807.61	22482.03
807.80	22365.87
807.98	22459.09
808.17	22292.55
808.35	22265.68
808.53	22506.93
808.72	22312.70
808.90	22285.67
809.09	22329.09
809.27	22394.78
809.45	22159.51
809.64	22342.36
809.82	22215.96
810.01	22254.78
810.19	22260.68
810.37	22121.34
810.56	22071.61
810.74	22247.66
810.93	21944.23
811.11	22110.36
811.29	21969.71
811.48	22038.03
811.66	21944.07
811.84	21951.52
812.03	21923.34
812.21	21904.83
812.40	22036.88
812.58	22110.69
812.76	21874.11
812.95	22097.26
813.13	21733.95
813.31	21910.64
813.50	21869.03
813.68	21851.99
813.86	21904.17
814.05	21996.25
814.23	21672.01
814.42	21895.49
814.60	21758.28
814.78	21939.89
814.97	21920.31
815.15	21844.54
815.33	21944.15
815.52	21826.68
815.70	21792.03
815.88	21858.54
816.07	21681.76
816.25	21749.84
816.43	21687.83
816.62	21526.36
816.80	21624.50
816.98	21587.97
817.17	21561.10
817.35	21605.58
817.53	21606.07
817.72	21690.04
817.90	21362.53
818.08	21459.68
818.26	21582.40
818.45	21374.90
818.63	21523.25
818.81	21472.54
819.00	21279.13
819.18	21563.55
819.36	21478.11
819.55	21541.27
819.73	21437.24
819.91	21571.42
820.09	21457.39
820.28	21604.19
820.46	21391.12
820.64	21692.82
820.83	21381.78
821.01	21515.71
821.19	21359.82
821.38	21461.48
821.56	21332.38
821.74	21440.43
821.92	21270.12
822.11	21521.94
822.29	21240.06
822.47	21321.57
822.65	21413.07
822.84	21393.98
823.02	21163.95
823.20	21472.38
823.39	21212.70
823.57	21227.44
823.75	21253.82
823.93	21154.94
824.12	21260.70
824.30	21172.39
824.48	21174.11
824.66	21336.39
824.85	20890.84
825.03	21261.44
825.21	21265.21
825.39	21147.57
825.58	21270.37
825.76	21168.30
825.94	21213.19
826.12	21130.12
826.31	21077.04
826.49	21156.01
826.67	21176.90
826.85	21079.74
827.03	21128.32
827.22	21198.77
827.40	21056.81
827.58	21035.01
827.76	21073.60
827.95	20992.58
828.13	21038.37
828.31	21011.50
828.49	21119.80
828.67	21031.49
828.86	20922.95
829.04	20998.56
829.22	20922.29
829.40	20927.29
829.58	20830.05
829.77	20897.56
829.95	20958.67
830.13	20936.96
830.31	20860.61
830.49	20908.29
830.68	20968.99
830.86	20827.10
831.04	20889.77
831.22	20942.77
831.40	20890.43
831.59	20962.76
831.77	20848.16
831.95	21001.67
832.13	20654.91
832.31	20870.93
832.50	20772.87
832.68	20735.93
832.86	20770.74
833.04	20953.83
833.22	20627.39
833.40	21004.38
833.59	20704.06
833.77	20898.13
833.95	20491.73
834.13	21058.93
834.31	20763.54
834.49	20791.88
834.67	20791.39
834.86	20844.47
835.04	20733.64
835.22	20807.20
835.40	20800.24
835.58	20727.33
835.76	20761.41
835.95	20821.29
836.13	20758.21
836.31	20654.17
836.49	20852.01
836.67	20856.43
836.85	20746.33
837.03	20747.64
837.21	20784.67
837.40	20648.93
837.58	20412.92
837.76	20590.69
837.94	20564.56
838.12	20799.33
838.30	20577.25
838.48	20680.39
838.66	20618.95
838.85	20578.32
839.03	20696.03
839.21	20613.95
839.39	20612.72
839.57	20664.25
839.75	20481.57
839.93	20630.34
840.11	20544.65
840.29	20563.98
840.47	20555.63
840.66	20536.13
840.84	20512.37
841.02	20412.51
841.20	20528.84
841.38	20503.85
841.56	20493.78
841.74	20732.49
841.92	20518.19
842.10	20522.37
842.28	20638.61
842.46	20532.12
842.65	20471.66
842.83	20619.85
843.01	20830.38
843.19	20525.97
843.37	20677.11
843.55	20579.96
843.73	20700.38
843.91	20601.66
844.09	20505.41
844.27	20694.97
844.45	20444.79
844.63	20412.19
844.81	20392.36
844.99	20444.22
845.17	20423.08
845.35	20528.84
845.54	20400.23
845.72	20454.29
845.90	20442.41
846.08	20391.62
846.26	20279.31
846.44	20519.83
846.62	20221.40
846.80	20326.58
846.98	20298.40
847.16	20276.94
847.34	20346.57
847.52	20327.73
847.70	20326.75
847.88	20453.56
848.06	20301.43
848.24	20461.50
848.42	20419.15
848.60	20290.13
848.78	20435.94
848.96	20324.12
849.14	20243.52
849.32	20369.42
849.50	20178.96
849.68	20428.65
849.86	20257.93
850.04	20236.14
850.22	20135.14
850.40	20084.76
850.58	20244.91
850.76	20506.97
850.94	20023.15
851.12	20292.75
851.30	20172.00
851.48	20365.66
851.66	20143.66
851.84	20127.11
852.02	20059.85
852.20	20198.46
852.38	20020.94
852.56	20065.01
852.74	20102.21
852.92	20026.51
853.10	20030.36
853.28	20074.85
853.46	19771.75
853.64	20040.77
853.82	19878.98
854.00	19968.02
854.18	19830.81
854.36	19828.92
854.54	19908.14
854.72	19786.41
854.90	19736.52
855.07	19914.12
855.25	19864.89
855.43	19933.21
855.61	19921.82
855.79	19864.48
855.97	19990.71
856.15	19947.13
856.33	19894.95
856.51	20030.53
856.69	19779.86
856.87	20028.15
857.05	19944.18
857.23	19987.52
857.41	19820.73
857.59	19813.28
857.77	19910.60
857.94	19887.58
858.12	19955.16
858.30	19871.11
858.48	19832.12
858.66	19713.42
858.84	19943.45
859.02	19709.57
859.20	19632.32
859.38	19920.26
859.56	19752.90
859.74	19704.00
859.92	19786.16
860.09	19572.60
860.27	19728.33
860.45	19500.76
860.63	19539.59
860.81	19687.53
860.99	19504.36
861.17	19338.15
861.35	19036.77
861.53	18942.89
861.70	18860.24
861.88	19314.97
862.06	19254.35
862.24	19027.60
862.42	19018.67
862.60	19316.20
862.78	19332.25
862.96	19404.75
863.14	19269.26
863.31	19355.35
863.49	19340.44
863.67	19317.18
863.85	19308.66
864.03	19419.58
864.21	19329.79
864.39	19327.75
864.56	19221.01
864.74	19289.41
864.92	19181.77
865.10	19088.95
865.28	19189.96
865.46	19382.14
865.64	18988.93
865.81	19224.69
865.99	18926.18
866.17	19154.98
866.35	19045.04
866.53	19061.76
866.71	19049.14
866.88	19055.86
867.06	18910.04
867.24	18982.38
867.42	18814.85
867.60	18911.68
867.78	18730.72
867.95	18913.40
868.13	18672.23
868.31	18849.91
868.49	18812.64
868.67	18716.22
868.84	18650.61
869.02	18744.48
869.20	18428.44
869.38	18729.25
869.56	18575.81
869.73	18512.98
869.91	18582.61
870.09	18545.83
870.27	18407.72
870.45	18475.05
870.62	18353.90
870.80	18544.28
870.98	18422.38
871.16	18480.30
871.34	18452.03
871.51	18506.59
871.69	18354.88
871.87	18430.16
872.05	18331.20
872.23	18338.41
872.40	18182.52
872.58	18257.81
872.76	18096.92
872.94	18051.45
873.11	18085.12
873.29	18007.87
873.47	18065.13
873.65	18047.03
873.83	18038.84
874.00	18037.85
874.18	18167.86
874.36	18039.25
874.54	18082.01
874.71	17940.62
874.89	17821.67
875.07	17907.85
875.25	17828.14
875.42	17851.57
875.60	17777.60
875.78	17950.61
875.96	17769.73
876.13	17909.00
876.31	17693.06
876.49	17743.44
876.66	17641.37
876.84	17937.09
877.02	17680.52
877.20	17674.71
877.37	17705.18
877.55	17713.37
877.73	17615.48
877.91	17555.76
878.08	17688.14
878.26	17615.73
878.44	17584.43
878.61	17602.37
878.79	17503.58
878.97	17548.47
879.15	17624.57
879.32	17606.22
879.50	17538.64
879.68	17664.88
879.85	17452.05
880.03	17657.91
880.21	17457.05
880.38	17600.00
880.56	17457.46
880.74	17646.69
880.92	17438.04
881.09	17560.02
881.27	17500.88
881.45	17528.56
881.62	17431.41
881.80	17405.93
881.98	17305.17
882.15	17455.66
882.33	17309.10
882.51	17312.30
882.68	17196.63
882.86	17382.42
883.04	17165.99
883.21	17170.74
883.39	17406.26
883.57	17163.94
883.74	17264.21
883.92	17242.91
884.10	17263.48
884.27	17238.65
884.45	17165.17
884.63	17306.24
884.80	17218.75
884.98	17250.61
885.16	17212.44
885.33	17247.75
885.51	17256.35
885.69	17208.75
885.86	17109.63
886.04	17184.26
886.21	17003.38
886.39	17190.24
886.57	16870.18
886.74	17140.60
886.92	17085.96
887.10	17067.28
887.27	17079.65
887.45	17035.41
887.62	17021.82
887.80	17050.24
887.98	17177.13
888.15	17163.62
888.33	17037.71
888.51	17207.03
888.68	17037.87
888.86	17137.98
889.03	17064.41
889.21	17093.33
889.39	17146.74
889.56	17125.03
889.74	17100.05
889.91	17111.35
890.09	17068.51
890.27	17083.99
890.44	17083.99
890.62	17098.33
890.79	17183.20
890.97	17142.15
891.14	17084.16
891.32	17137.98
891.50	16966.60
891.67	17096.03
891.85	16994.37
892.02	16919.58
892.20	17059.17
892.38	17024.27
892.55	16888.45
892.73	17025.01
892.90	16901.56
893.08	16910.90
893.25	16897.13
893.43	17022.55
893.60	16846.43
893.78	16970.78
893.96	16884.27
894.13	16976.51
894.31	17033.69
894.48	16903.77
894.66	16954.64
894.83	16971.76
895.01	16952.68
895.18	16972.42
895.36	16882.88
895.53	16941.70
895.71	16827.67
895.89	16832.99
896.06	16730.10
896.24	16811.12
896.41	16720.76
896.59	16787.04
896.76	16548.73
896.94	16680.95
897.11	16672.19
897.29	16680.21
897.46	16605.50
897.64	16625.82
897.81	16553.98
897.99	16422.91
898.16	16669.97
898.34	16544.97
898.51	16553.57
898.69	16500.57
898.86	16512.61
899.04	16526.53
899.21	16390.55
899.39	16410.62
899.56	16330.09
899.74	16507.53
899.91	16301.42
900.09	16285.78
900.26	16328.70
900.44	16144.79
900.61	16168.39
900.79	16360.32
900.96	16193.53
901.14	16218.03
901.31	16028.14
901.49	16063.94
901.66	16097.61
901.84	16091.22
902.01	15893.96
902.19	16017.25
902.36	15883.80
902.54	15934.84
902.71	15913.78
902.88	15941.55
903.06	15723.40
903.23	15980.14
903.41	15749.86
903.58	15683.51
903.76	15627.72
903.93	15728.97
904.11	15753.88
904.28	15633.87
904.45	15581.68
904.63	15565.38
904.80	15426.37
904.98	15521.31
905.15	15332.00
905.33	15431.85
905.50	15352.72
905.68	15325.85
905.85	15228.12
906.02	15259.42
906.20	15288.82
906.37	15095.74
906.55	15012.18
906.72	15183.39
906.90	15034.96
907.07	14924.12
907.24	14985.72
907.42	14818.20
907.59	14868.25
907.77	14735.95
907.94	14691.39
908.11	14710.72
908.29	14686.89
908.46	14696.63
908.64	14572.28
908.81	14591.78
908.98	14446.29
909.16	14502.32
909.33	14402.79
909.51	14341.11
909.68	14289.01
909.85	14301.29
910.03	14256.98
910.20	14159.66
910.37	14148.84
910.55	14092.40
910.72	14048.41
910.90	14001.47
911.07	13924.63
911.24	13847.87
911.42	13963.38
911.59	13751.13
911.76	13808.39
911.94	13686.25
912.11	13680.68
912.29	13676.66
912.46	13583.77
912.63	13572.54
912.81	13431.23
912.98	13556.41
913.15	13396.91
913.33	13465.64
913.50	13414.36
913.67	13377.25
913.85	13322.69
914.02	13378.40
914.19	13326.13
914.37	13212.27
914.54	13295.25
914.71	13205.06
914.89	13207.60
915.06	13157.30
915.23	13050.39
915.41	12979.53
915.58	12913.34
915.75	12867.22
915.93	12854.20
916.10	12794.89
916.27	12727.47
916.45	12697.73
916.62	12622.37
916.79	12662.84
916.97	12551.43
917.14	12563.71
917.31	12487.69
917.49	12536.35
917.66	12500.88
917.83	12411.43
918.00	12414.79
918.18	12396.76
918.35	12308.05
918.52	12353.35
918.70	12152.56
918.87	12198.03
919.04	12118.40
919.21	12129.38
919.39	12028.95
919.56	12054.84
919.73	11922.45
919.91	11950.47
920.08	11943.26
920.25	11806.46
920.42	11929.99
920.60	11773.12
920.77	11698.98
920.94	11746.33
921.11	11570.20
921.29	11639.18
921.46	11491.81
921.63	11556.03
921.81	11464.69
921.98	11471.82
922.15	11426.85
922.32	11461.42
922.50	11402.84
922.67	11365.00
922.84	11332.15
923.01	11225.74
923.19	11264.97
923.36	11252.85
923.53	11046.74
923.70	11122.11
923.87	11030.20
924.05	11060.34
924.22	10924.52
924.39	10994.07
924.56	10839.98
924.74	10887.98
924.91	10877.58
925.08	10802.13
925.25	10800.09
925.43	10800.41
925.60	10647.14
925.77	10801.64
925.94	10662.63
926.11	10664.02
926.29	10575.87
926.46	10606.10
926.63	10566.54
926.80	10560.64
926.97	10486.83
927.15	10467.25
927.32	10375.75
927.49	10342.08
927.66	10334.05
927.83	10320.12
928.01	10254.92
928.18	10201.75
928.35	10107.79
928.52	10186.60
928.69	10036.69
928.87	10053.40
929.04	10054.13
929.21	10037.01
929.38	9986.22
929.55	9994.33
929.72	9897.10
929.90	9892.18
930.07	9864.00
930.24	9800.43
930.41	9802.23
930.58	9748.66
930.75	9791.91
930.93	9686.73
931.10	9673.70
931.27	9565.08
931.44	9569.09
931.61	9520.35
931.78	9530.59
931.95	9519.37
932.13	9440.32
932.30	9483.90
932.47	9392.07
932.64	9426.06
932.81	9393.05
932.98	9360.86
933.15	9349.39
933.33	9260.26
933.50	9320.39
933.67	9233.39
933.84	9270.17
934.01	9239.12
934.18	9229.95
934.35	9202.59
934.52	9155.24
934.70	9180.63
934.87	9123.05
935.04	9072.42
935.21	9065.13
935.38	9042.03
935.55	8964.29
935.72	9019.34
935.89	8930.86
936.06	8939.96
936.24	8835.10
936.41	8967.32
936.58	8850.58
936.75	8866.15
936.92	8803.97
937.09	8799.79
937.26	8713.70
937.43	8781.03
937.60	8764.90
937.77	8700.75
937.94	8638.33
938.12	8689.70
938.29	8592.13
938.46	8629.32
938.63	8546.50
938.80	8575.83
938.97	8505.95
939.14	8489.98
939.31	8454.83
939.48	8470.32
939.65	8384.47
939.82	8357.11
939.99	8372.83
940.16	8336.95
940.33	8300.58
940.50	8293.86
940.67	8250.20
940.85	8272.81
941.02	8251.76
941.19	8230.87
941.36	8176.31
941.53	8174.84
941.70	8160.75
941.87	8096.85
942.04	8129.62
942.21	8120.28
942.38	8066.54
942.55	8012.23
942.72	8028.86
942.89	8014.44
943.06	7964.71
943.23	7939.16
943.40	7853.71
943.57	7952.92
943.74	7899.43
943.91	7865.35
944.08	7842.57
944.25	7892.05
944.42	7767.45
944.59	7763.85
944.76	7808.99
944.93	7773.76
945.10	7744.76
945.27	7745.17
945.44	7645.97
945.61	7673.98
945.78	7587.97
945.95	7641.05
946.12	7555.86
946.29	7547.58
946.46	7551.60
946.63	7524.07
946.80	7498.19
946.97	7497.61
947.14	7465.42
947.31	7512.93
947.48	7446.82
947.65	7439.70
947.82	7434.37
947.99	7442.32
948.16	7365.89
948.33	7440.76
948.50	7311.25
948.67	7341.31
948.84	7312.64
949.01	7290.69
949.18	7261.93
949.35	7299.29
949.52	7195.17
949.68	7224.74
949.85	7212.29
950.02	7184.52
950.19	7171.82
950.36	7160.68
950.53	7134.39
950.70	7128.98
950.87	7086.95
951.04	7152.65
951.21	7061.23
951.38	7056.32
951.55	7058.37
951.72	7051.65
951.89	7003.32
952.06	7038.46
952.23	7001.92
952.39	6988.16
952.56	6925.74
952.73	6943.19
952.90	6876.51
953.07	6914.68
953.24	6866.27
953.41	6849.39
953.58	6804.01
953.75	6852.50
953.92	6792.87
954.09	6774.52
954.25	6741.09
954.42	6754.12
954.59	6701.61
954.76	6670.40
954.93	6673.18
955.10	6672.61
955.27	6636.81
955.44	6629.93
955.61	6600.60
955.77	6653.52
955.94	6604.54
956.11	6591.76
956.28	6605.44
956.45	6604.37
956.62	6576.52
956.79	6571.93
956.96	6542.93
957.12	6571.11
957.29	6533.92
957.46	6514.18
957.63	6475.19
957.80	6479.94
957.97	6464.70
958.14	6489.36
958.30	6385.40
958.47	6413.66
958.64	6374.59
958.81	6421.61
958.98	6340.02
959.15	6382.62
959.32	6365.17
959.48	6318.72
959.65	6268.59
959.82	6290.05
959.99	6231.81
960.16	6300.04
960.33	6252.53
960.49	6260.48
960.66	6238.93
960.83	6196.17
961.00	6212.88
961.17	6213.78
961.33	6195.76
961.50	6195.92
961.67	6154.56
961.84	6187.08
962.01	6139.48
962.18	6171.35
962.34	6116.63
962.51	6119.00
962.68	6067.97
962.85	6141.12
963.02	6066.98
963.18	6090.66
963.35	6045.93
963.52	6035.04
963.69	6050.76
963.86	6038.07
964.02	5963.69
964.19	6013.66
964.36	5970.57
964.53	5959.59
964.69	5914.12
964.86	5982.12
965.03	5882.34
965.20	5939.36
965.37	5853.50
965.53	5865.05
965.70	5861.20
965.87	5875.79
966.04	5837.69
966.20	5825.08
966.37	5798.21
966.54	5750.78
966.71	5829.42
966.87	5751.76
967.04	5779.37
967.21	5762.66
967.38	5745.70
967.54	5752.17
967.71	5738.00
967.88	5706.54
968.05	5703.35
968.21	5694.17
968.38	5666.89
968.55	5656.08
968.72	5637.73
968.88	5610.62
969.05	5653.21
969.22	5602.51
969.39	5593.90
969.55	5605.21
969.72	5558.68
969.89	5587.60
970.05	5584.32
970.22	5572.03
970.39	5567.94
970.56	5580.22
970.72	5543.85
970.89	5570.39
971.06	5517.88
971.22	5517.56
971.39	5502.07
971.56	5525.58
971.73	5467.42
971.89	5515.18
972.06	5478.73
972.23	5489.62
972.39	5428.35
972.56	5466.36
972.73	5405.57
972.89	5412.86
973.06	5420.24
973.23	5424.00
973.39	5368.22
973.56	5404.43
973.73	5344.30
973.89	5396.40
974.06	5340.61
974.23	5351.92
974.39	5338.97
974.56	5340.61
974.73	5305.47
974.89	5286.63
975.06	5270.16
975.23	5328.16
975.39	5256.40
975.56	5288.84
975.73	5255.58
975.89	5254.19
976.06	5259.18
976.23	5239.28
976.39	5210.36
976.56	5210.93
976.73	5214.21
976.89	5189.96
977.06	5175.05
977.23	5154.57
977.39	5161.95
977.56	5164.49
977.72	5118.04
977.89	5153.43
978.06	5130.49
978.22	5102.56
978.39	5118.37
978.56	5127.38
978.72	5089.94
978.89	5104.93
979.05	5091.00
979.22	5073.56
979.39	5041.77
979.55	5051.36
979.72	5025.39
979.88	5043.00
980.05	4987.79
980.22	5032.35
980.38	5025.39
980.55	5010.56
980.71	4989.51
980.88	5013.92
981.05	4984.59
981.21	4965.83
981.38	4966.24
981.54	4987.21
981.71	4952.07
981.88	4952.40
982.04	4949.37
982.21	4951.99
982.37	4925.28
982.54	4932.82
982.70	4894.15
982.87	4923.48
983.04	4859.01
983.20	4923.97
983.37	4849.10
983.53	4871.46
983.70	4875.15
983.86	4857.04
984.03	4862.45
984.20	4855.65
984.36	4846.40
984.53	4848.93
984.69	4825.92
984.86	4799.70
985.02	4806.83
985.19	4797.16
985.35	4807.98
985.52	4792.82
985.68	4782.25
985.85	4766.93
986.02	4769.23
986.18	4746.54
986.35	4763.58
986.51	4769.31
986.68	4770.70
986.84	4746.21
987.01	4723.44
987.17	4742.60
987.34	4730.48
987.50	4725.97
987.67	4713.11
987.83	4713.77
988.00	4674.94
988.16	4677.81
988.33	4671.58
988.49	4676.25
988.66	4645.94
988.82	4673.55
988.99	4663.22
989.15	4640.78
989.32	4614.65
989.48	4595.89
989.65	4559.11
989.81	4609.73
989.98	4568.36
990.14	4576.55
990.31	4584.09
990.47	4580.24
990.64	4573.36
990.80	4550.01
990.97	4536.17
991.13	4558.21
991.30	4535.84
991.46	4520.11
991.63	4506.10
991.79	4540.51
991.95	4491.36
992.12	4526.01
992.28	4487.43
992.45	4495.37
992.61	4468.75
992.78	4479.56
992.94	4478.74
993.11	4487.35
993.27	4467.93
993.44	4470.31
993.60	4473.09
993.76	4467.77
993.93	4453.68
994.09	4460.56
994.26	4418.78
994.42	4432.62
994.59	4409.52
994.75	4438.28
994.91	4405.18
995.08	4382.82
995.24	4371.51
995.41	4391.42
995.57	4372.41
995.74	4375.36
995.90	4351.69
996.06	4369.14
996.23	4344.40
996.39	4350.05
996.56	4332.27
996.72	4349.97
996.88	4353.82
997.05	4347.35
997.21	4324.98
997.38	4345.79
997.54	4297.05
997.70	4312.45
997.87	4309.42
998.03	4317.69
998.20	4266.08
998.36	4283.20
998.52	4259.69
998.69	4310.07
998.85	4267.07
999.02	4292.21
999.18	4233.15
999.34	4269.03
999.51	4238.89
999.67	4277.96
999.83	4229.96
1000.00	4244.37
1000.16	4229.30
1000.33	4233.56
1000.49	4212.59
1000.65	4217.50
1000.82	4210.71
1000.98	4188.67
1001.14	4178.51
1001.31	4214.97
1001.47	4197.03
1001.63	4225.21
1001.80	4171.14
1001.96	4157.87
1002.12	4138.37
1002.29	4162.21
1002.45	4151.72
1002.61	4151.07
1002.78	4139.44
1002.94	4152.46
1003.10	4137.31
1003.27	4140.26
1003.43	4118.47
1003.59	4149.76
1003.76	4136.90
1003.92	4120.02
1004.08	4116.09
1004.25	4117.40
1004.41	4101.92
1004.57	4097.08
1004.74	4092.99
1004.90	4123.30
1005.06	4097.08
1005.23	4091.84
1005.39	4087.50
1005.55	4086.43
1005.71	4075.62
1005.88	4081.11
1006.04	4089.30
1006.20	4067.51
1006.37	4025.00
1006.53	4047.36
1006.69	4046.29
1006.85	4073.66
1007.02	4029.01
1007.18	4041.54
1007.34	4015.41
1007.51	4047.69
1007.67	4010.82
1007.83	3997.96
1007.99	3994.11
1008.16	3977.16
1008.32	3974.37
1008.48	4012.13
1008.64	4010.41
1008.81	3997.64
1008.97	3987.23
1009.13	3967.49
1009.29	3981.09
1009.46	3965.36
1009.62	3969.05
1009.78	3946.60
1009.95	3969.54
1010.11	3960.77
1010.27	3956.43
1010.43	3945.37
1010.59	3963.23
1010.76	3928.66
1010.92	3935.13
1011.08	3928.00
1011.24	3928.09
1011.41	3945.45
1011.57	3899.82
1011.73	3927.10
1011.89	3886.72
1012.06	3920.96
1012.22	3886.88
1012.38	3891.47
1012.54	3872.63
1012.70	3897.53
1012.87	3864.60
1013.03	3901.54
1013.19	3885.98
1013.35	3884.34
1013.51	3836.34
1013.68	3850.75
1013.84	3852.64
1014.00	3847.97
1014.16	3823.31
1014.32	3853.70
1014.49	3826.67
1014.65	3864.60
1014.81	3802.91
1014.97	3831.34
1015.13	3819.54
1015.30	3845.76
1015.46	3830.27
1015.62	3804.96
1015.78	3813.73
1015.94	3808.08
1016.10	3812.01
1016.27	3812.17
1016.43	3771.05
1016.59	3817.99
1016.75	3797.84
1016.91	3788.33
1017.07	3769.57
1017.24	3788.58
1017.40	3743.60
1017.56	3769.25
1017.72	3738.53
1017.88	3754.58
1018.04	3761.87
1018.21	3747.78
1018.37	3751.22
1018.53	3753.93
1018.69	3755.16
1018.85	3759.50
1019.01	3720.50
1019.17	3734.68
1019.34	3720.83
1019.50	3733.94
1019.66	3690.93
1019.82	3715.10
1019.98	3716.98
1020.14	3732.79
1020.30	3709.20
1020.46	3722.80
1020.63	3701.66
1020.79	3699.86
1020.95	3705.51
1021.11	3693.06
1021.27	3686.10
1021.43	3700.76
1021.59	3723.86
1021.75	3692.98
1021.91	3664.14
1022.07	3662.01
1022.24	3658.82
1022.40	3664.14
1022.56	3647.51
1022.72	3662.10
1022.88	3653.90
1023.04	3675.37
1023.20	3639.32
1023.36	3651.12
1023.52	3644.32
1023.68	3659.88
1023.84	3641.29
1024.01	3652.02
1024.17	3631.95
1024.33	3639.65
1024.49	3622.20
1024.65	3620.89
1024.81	3618.68
1024.97	3628.67
1025.13	3617.86
1025.29	3611.96
1025.45	3595.17
1025.61	3617.61
1025.77	3599.26
1025.93	3612.62
1026.09	3599.26
1026.25	3620.32
1026.41	3579.60
1026.57	3600.66
1026.73	3581.00
1026.90	3592.63
1027.06	3592.55
1027.22	3605.82
1027.38	3593.28
1027.54	3594.43
1027.70	3582.06
1027.86	3592.79
1028.02	3602.46
1028.18	3589.43
1028.34	3576.57
1028.50	3589.76
1028.66	3560.11
1028.82	3574.28
1028.98	3553.06
1029.14	3553.23
1029.30	3558.63
1029.46	3564.53
1029.62	3551.67
1029.78	3532.25
1029.94	3546.84
1030.10	3553.06
1030.26	3528.90
1030.42	3540.12
1030.58	3529.14
1030.74	3550.11
1030.90	3510.22
1031.06	3513.41
1031.22	3516.28
1031.38	3524.14
1031.54	3505.47
1031.70	3532.34
1031.86	3500.39
1032.02	3517.51
1032.18	3507.76
1032.34	3513.66
1032.50	3499.08
1032.66	3519.23
1032.82	3505.39
1032.98	3508.09
1033.14	3497.85
1033.30	3498.59
1033.45	3489.25
1033.61	3508.66
1033.77	3479.83
1033.93	3495.47
1034.09	3482.69
1034.25	3496.21
1034.41	3487.04
1034.57	3484.00
1034.73	3492.28
1034.89	3468.60
1035.05	3483.43
1035.21	3477.94
1035.37	3460.08
1035.53	3468.36
1035.69	3451.56
1035.85	3492.85
1036.01	3458.53
1036.16	3466.64
1036.32	3476.06
1036.48	3454.02
1036.64	3420.85
1036.80	3458.53
1036.96	3443.05
1037.12	3443.21
1037.28	3457.54
1037.44	3447.80
1037.60	3449.68
1037.76	3427.15
1037.91	3438.05
1038.07	3441.08
1038.23	3418.96
1038.39	3441.65
1038.55	3448.70
1038.71	3443.45
1038.87	3433.54
1039.03	3445.17
1039.19	3421.42
1039.35	3422.57
1039.50	3422.89
1039.66	3427.64
1039.82	3413.47
1039.98	3425.92
1040.14	3406.26
1040.30	3426.99
1040.46	3391.27
1040.62	3400.20
1040.77	3413.39
1040.93	3425.51
1041.09	3387.75
1041.25	3412.33
1041.41	3395.61
1041.57	3399.22
1041.73	3399.22
1041.88	3399.22

