SpectraSuite Data File
++++++++++++++++++++++++++++++++++++
Date: Tue Sep 20 11:59:46 EDT 2022
User: Laboratoire
Dark Spectrum Present: No
Reference Spectrum Present: No
Number of Sampled Component Spectra: 1
Spectrometers: FLMT00174
Integration Time (usec): 15000 (FLMT00174)
Spectra Averaged: 25 (FLMT00174)
Boxcar Smoothing: 0 (FLMT00174)
Correct for Electrical Dark: No (FLMT00174)
Strobe/Lamp Enabled: No (FLMT00174)
Correct for Detector Non-linearity: No (FLMT00174)
Correct for Stray Light: No (FLMT00174)
Number of Pixels in Processed Spectrum: 3648
>>>>>Begin Processed Spectral Data<<<<<
345.74	3140.44
345.96	3140.44
346.18	3140.44
346.39	3169.76
346.61	3194.26
346.83	3207.69
347.05	3207.86
347.27	3218.26
347.49	3215.39
347.71	3233.82
347.93	3223.67
348.15	3228.01
348.36	3207.61
348.58	3218.10
348.80	3199.75
349.02	3209.90
349.24	3220.64
349.46	3314.10
349.68	3305.18
349.90	3310.66
350.11	3298.62
350.33	3323.61
350.55	3290.35
350.77	3299.69
350.99	3308.45
351.21	3313.94
351.43	3304.93
351.65	3310.09
351.86	3308.94
352.08	3323.85
352.30	3287.73
352.52	3320.90
352.74	3291.17
352.96	3308.70
353.18	3301.49
353.39	3325.08
353.61	3302.72
353.83	3321.48
354.05	3319.27
354.27	3341.30
354.49	3311.89
354.70	3314.51
354.92	3297.48
355.14	3292.72
355.36	3294.28
355.58	3312.55
355.80	3309.76
356.02	3317.05
356.23	3311.65
356.45	3323.12
356.67	3304.36
356.89	3334.18
357.11	3303.54
357.33	3343.92
357.54	3289.78
357.76	3310.34
357.98	3319.76
358.20	3330.65
358.42	3314.84
358.63	3300.34
358.85	3309.44
359.07	3309.11
359.29	3304.68
359.51	3316.07
359.73	3297.31
359.94	3295.10
360.16	3288.46
360.38	3305.91
360.60	3297.23
360.82	3317.05
361.03	3326.80
361.25	3310.75
361.47	3317.63
361.69	3332.37
361.91	3299.11
362.12	3304.36
362.34	3297.72
362.56	3329.75
362.78	3325.66
363.00	3312.88
363.21	3291.41
363.43	3331.72
363.65	3291.58
363.87	3322.95
364.09	3315.66
364.30	3301.41
364.52	3306.40
364.74	3319.92
364.96	3315.66
365.17	3326.64
365.39	3309.19
365.61	3300.75
365.83	3314.02
366.05	3305.34
366.26	3307.96
366.48	3323.61
366.70	3326.07
366.92	3316.56
367.13	3340.24
367.35	3312.47
367.57	3320.66
367.79	3320.90
368.01	3314.10
368.22	3333.27
368.44	3318.36
368.66	3329.59
368.88	3330.98
369.09	3327.05
369.31	3325.57
369.53	3314.92
369.75	3314.27
369.96	3336.14
370.18	3315.17
370.40	3327.05
370.62	3326.23
370.83	3302.72
371.05	3337.37
371.27	3358.91
371.49	3309.76
371.70	3317.63
371.92	3307.14
372.14	3351.46
372.36	3312.79
372.57	3340.81
372.79	3329.01
373.01	3327.54
373.22	3307.63
373.44	3336.80
373.66	3313.45
373.88	3340.48
374.09	3335.65
374.31	3324.92
374.53	3325.25
374.75	3336.47
374.96	3312.55
375.18	3345.23
375.40	3340.89
375.61	3327.05
375.83	3314.27
376.05	3323.20
376.27	3329.67
376.48	3318.12
376.70	3331.31
376.92	3344.17
377.13	3317.79
377.35	3334.83
377.57	3325.74
377.79	3329.18
378.00	3326.15
378.22	3326.97
378.44	3325.90
378.65	3344.01
378.87	3326.39
379.09	3332.13
379.30	3328.69
379.52	3348.18
379.74	3342.04
379.96	3342.61
380.17	3320.49
380.39	3343.02
380.61	3330.82
380.82	3339.50
381.04	3335.08
381.26	3341.88
381.47	3353.67
381.69	3361.70
381.91	3330.32
382.12	3360.06
382.34	3359.41
382.56	3355.80
382.77	3353.59
382.99	3356.78
383.21	3355.23
383.42	3368.01
383.64	3343.84
383.86	3369.81
384.07	3359.90
384.29	3382.10
384.51	3353.18
384.72	3345.40
384.94	3368.83
385.16	3390.13
385.37	3374.07
385.59	3364.73
385.81	3365.63
386.02	3369.73
386.24	3376.12
386.46	3361.86
386.67	3381.69
386.89	3396.52
387.11	3396.02
387.32	3403.64
387.54	3396.60
387.76	3401.59
387.97	3411.67
388.19	3400.12
388.40	3411.92
388.62	3382.92
388.84	3406.92
389.05	3386.60
389.27	3410.52
389.49	3419.21
389.70	3409.29
389.92	3401.84
390.14	3422.40
390.35	3421.09
390.57	3409.21
390.78	3403.97
391.00	3391.68
391.22	3411.42
391.43	3395.53
391.65	3412.00
391.86	3406.76
392.08	3425.51
392.30	3396.11
392.51	3425.51
392.73	3431.25
392.95	3410.69
393.16	3402.09
393.38	3440.01
393.59	3421.99
393.81	3439.36
394.03	3419.37
394.24	3425.68
394.46	3416.91
394.67	3442.39
394.89	3416.42
395.11	3457.79
395.32	3467.62
395.54	3440.67
395.75	3440.01
395.97	3433.46
396.19	3418.72
396.40	3448.94
396.62	3445.75
396.83	3456.15
397.05	3443.54
397.26	3454.92
397.48	3451.24
397.70	3458.94
397.91	3466.31
398.13	3458.04
398.34	3472.70
398.56	3483.10
398.78	3483.35
398.99	3524.39
399.21	3460.25
399.42	3489.00
399.64	3490.80
399.85	3488.84
400.07	3489.08
400.29	3525.29
400.50	3506.86
400.72	3529.47
400.93	3495.64
401.15	3522.10
401.36	3523.82
401.58	3541.10
401.79	3559.70
402.01	3561.34
402.23	3549.70
402.44	3596.56
402.66	3578.46
402.87	3579.11
403.09	3571.99
403.30	3605.49
403.52	3589.60
403.73	3595.66
403.95	3603.85
404.16	3624.99
404.38	3614.75
404.60	3625.64
404.81	3636.62
405.03	3660.54
405.24	3651.94
405.46	3662.18
405.67	3673.56
405.89	3682.08
406.10	3681.84
406.32	3684.62
406.53	3704.45
406.75	3742.70
406.96	3711.98
407.18	3701.74
407.39	3716.08
407.61	3741.80
407.82	3714.20
408.04	3759.25
408.25	3730.25
408.47	3751.80
408.68	3750.08
408.90	3728.94
409.12	3762.77
409.33	3791.20
409.55	3755.65
409.76	3748.68
409.98	3742.13
410.19	3778.58
410.41	3792.43
410.62	3789.73
410.84	3764.82
411.05	3789.64
411.27	3797.34
411.48	3800.29
411.70	3798.74
411.91	3784.73
412.12	3780.47
412.34	3792.35
412.55	3799.39
412.77	3793.74
412.98	3795.71
413.20	3798.49
413.41	3794.97
413.63	3786.94
413.84	3787.43
414.06	3821.02
414.27	3803.32
414.49	3791.53
414.70	3810.12
414.92	3803.65
415.13	3784.15
415.35	3821.43
415.56	3799.88
415.78	3812.99
415.99	3821.26
416.21	3830.60
416.42	3823.56
416.63	3826.59
416.85	3835.44
417.06	3803.49
417.28	3816.51
417.49	3872.95
417.71	3836.83
417.92	3820.12
418.14	3828.31
418.35	3856.49
418.57	3854.03
418.78	3848.71
418.99	3853.79
419.21	3871.81
419.42	3869.92
419.64	3862.96
419.85	3873.12
420.07	3913.26
420.28	3884.26
420.50	3892.45
420.71	3898.51
420.92	3886.31
421.14	3927.27
421.35	3914.65
421.57	3923.66
421.78	3952.33
422.00	3971.01
422.21	3957.82
422.42	3992.97
422.64	3974.21
422.85	4011.64
423.07	4001.57
423.28	4020.41
423.50	4012.95
423.71	4017.54
423.92	4070.46
424.14	4064.23
424.35	4095.94
424.57	4113.47
424.78	4127.15
424.99	4127.07
425.21	4138.37
425.42	4154.43
425.64	4150.58
425.85	4174.17
426.06	4185.15
426.28	4184.41
426.49	4243.56
426.71	4256.17
426.92	4241.51
427.13	4270.92
427.35	4317.20
427.56	4348.98
427.78	4337.84
427.99	4370.20
428.20	4385.77
428.42	4411.57
428.63	4436.31
428.84	4418.04
429.06	4471.04
429.27	4501.03
429.49	4496.68
429.70	4541.25
429.91	4544.85
430.13	4601.46
430.34	4598.02
430.56	4625.54
430.77	4648.15
430.98	4651.59
431.20	4677.48
431.41	4718.27
431.62	4736.46
431.84	4721.63
432.05	4766.44
432.26	4766.69
432.48	4767.92
432.69	4851.31
432.91	4814.61
433.12	4826.82
433.33	4863.60
433.55	4918.89
433.76	4933.97
433.97	4898.41
434.19	4908.57
434.40	4950.43
434.61	4968.45
434.83	4993.52
435.04	4961.25
435.25	5009.25
435.47	5006.71
435.68	4983.12
435.89	5046.20
436.11	5041.94
436.32	5048.65
436.53	5046.44
436.75	5032.60
436.96	5043.49
437.17	5034.48
437.39	5016.87
437.60	5075.77
437.81	5076.10
438.03	5078.63
438.24	5081.67
438.45	5142.20
438.67	5065.77
438.88	5116.81
439.09	5149.82
439.31	5109.68
439.52	5124.92
439.73	5105.67
439.94	5074.87
440.16	5114.76
440.37	5065.61
440.58	5130.33
440.80	5099.77
441.01	5071.10
441.22	5155.72
441.44	5131.88
441.65	5118.53
441.86	5099.61
442.08	5134.50
442.29	5103.05
442.50	5103.70
442.71	5098.13
442.93	5111.24
443.14	5100.18
443.35	5146.05
443.57	5119.02
443.78	5120.17
443.99	5161.05
444.20	5115.74
444.42	5133.60
444.63	5128.85
444.84	5174.64
445.06	5185.54
445.27	5143.92
445.48	5139.50
445.69	5154.74
445.91	5149.74
446.12	5126.48
446.33	5155.88
446.54	5176.53
446.76	5156.46
446.97	5194.06
447.18	5162.03
447.39	5223.63
447.61	5220.52
447.82	5247.31
448.03	5207.98
448.25	5235.84
448.46	5264.59
448.67	5315.63
448.88	5250.66
449.10	5323.41
449.31	5320.38
449.52	5282.69
449.73	5337.17
449.95	5396.15
450.16	5364.61
450.37	5420.56
450.58	5505.19
450.79	5399.02
451.01	5438.09
451.22	5429.49
451.43	5485.61
451.64	5531.97
451.86	5512.07
452.07	5536.07
452.28	5590.87
452.49	5658.21
452.71	5615.45
452.92	5625.93
453.13	5653.95
453.34	5711.05
453.55	5751.60
453.77	5798.70
453.98	5789.53
454.19	5791.74
454.40	5852.60
454.62	5908.88
454.83	5888.32
455.04	5973.02
455.25	5940.17
455.46	6096.88
455.68	6058.71
455.89	6052.16
456.10	6085.66
456.31	6159.80
456.52	6190.11
456.74	6239.42
456.95	6347.31
457.16	6307.58
457.37	6406.95
457.58	6393.43
457.80	6441.76
458.01	6419.40
458.22	6650.49
458.43	6583.73
458.64	6654.75
458.86	6629.52
459.07	6723.24
459.28	6745.44
459.49	6867.82
459.70	6996.19
459.91	6989.96
460.13	6972.60
460.34	7051.89
460.55	7044.60
460.76	7188.29
460.97	7193.61
461.19	7209.18
461.40	7479.59
461.61	7394.89
461.82	7429.05
462.03	7526.12
462.24	7574.94
462.46	7585.84
462.67	7575.19
462.88	7693.97
463.09	7774.99
463.30	7858.55
463.51	7810.63
463.72	7993.71
463.94	8029.43
464.15	8070.88
464.36	8019.35
464.57	8262.57
464.78	8248.32
464.99	8304.60
465.20	8267.81
465.42	8462.29
465.63	8432.88
465.84	8444.59
466.05	8590.98
466.26	8624.32
466.47	8713.37
466.68	8672.90
466.90	8823.63
467.11	8755.48
467.32	8917.27
467.53	9014.09
467.74	8858.45
467.95	8957.41
468.16	9098.06
468.37	9129.03
468.59	9169.17
468.80	9259.69
469.01	9172.03
469.22	9252.89
469.43	9454.90
469.64	9301.22
469.85	9452.11
470.06	9471.28
470.28	9556.64
470.49	9373.31
470.70	9520.68
470.91	9704.01
471.12	9574.25
471.33	9731.46
471.54	9645.69
471.75	9649.05
471.96	9863.59
472.17	9807.07
472.39	9995.97
472.60	9759.47
472.81	10013.67
473.02	9843.44
473.23	10007.60
473.44	10084.12
473.65	9974.02
473.86	10061.92
474.07	10060.85
474.28	10094.27
474.49	10239.19
474.71	10194.13
474.92	10243.28
475.13	10170.38
475.34	10186.35
475.55	10199.46
475.76	10253.36
475.97	10423.26
476.18	10399.42
476.39	10436.69
476.60	10484.04
476.81	10459.88
477.02	10560.23
477.23	10501.57
477.44	10462.50
477.65	10580.95
477.87	10688.68
478.08	10678.27
478.29	10688.27
478.50	10865.46
478.71	10744.79
478.92	10804.10
479.13	10806.72
479.34	10839.24
479.55	10903.96
479.76	10869.14
479.97	10879.55
480.18	11166.75
480.39	10913.30
480.60	11164.21
480.81	11112.85
481.02	11164.87
481.23	11163.72
481.44	11294.96
481.65	11397.36
481.86	11508.44
482.07	11278.57
482.28	11641.39
482.49	11488.29
482.71	11518.60
482.92	11609.20
483.13	11734.70
483.34	11663.92
483.55	11718.48
483.76	11732.32
483.97	11891.24
484.18	11874.70
484.39	11991.92
484.60	11918.69
484.81	12145.11
485.02	12088.34
485.23	12214.99
485.44	12257.50
485.65	12379.64
485.86	12331.07
486.07	12529.55
486.28	12476.06
486.49	12643.34
486.70	12753.77
486.91	12822.82
487.12	12830.77
487.33	12803.25
487.54	13040.07
487.75	13060.80
487.96	13110.60
488.17	13059.49
488.38	13295.66
488.59	13313.84
488.80	13438.20
489.01	13480.96
489.22	13681.99
489.43	13716.39
489.64	13671.34
489.85	14029.32
490.06	13792.50
490.26	14024.65
490.47	14039.48
490.68	14198.08
490.89	14389.77
491.10	14304.49
491.31	14529.68
491.52	14726.45
491.73	14744.06
491.94	14768.64
492.15	14969.83
492.36	15029.96
492.57	15164.64
492.78	15156.36
492.99	15348.38
493.20	15489.93
493.41	15596.27
493.62	15667.78
493.83	15765.26
494.04	15944.83
494.25	16103.42
494.46	16220.73
494.67	16229.01
494.88	16414.63
495.08	16528.42
495.29	16648.59
495.50	16908.28
495.71	16908.11
495.92	17160.18
496.13	17244.06
496.34	17261.26
496.55	17474.33
496.76	17764.98
496.97	17697.73
497.18	17923.33
497.39	17981.58
497.60	18329.73
497.81	18168.19
498.02	18408.62
498.22	18296.31
498.43	18771.60
498.64	18930.85
498.85	18962.55
499.06	19123.93
499.27	19491.01
499.48	19193.15
499.69	19535.98
499.90	19728.82
500.11	20026.51
500.32	20351.65
500.52	20211.40
500.73	20701.93
500.94	20746.33
501.15	20870.52
501.36	21001.43
501.57	21021.50
501.78	21289.45
501.99	21595.58
502.20	21626.63
502.41	21716.09
502.61	21769.50
502.82	22201.95
503.03	22064.98
503.24	22543.63
503.45	22430.58
503.66	22783.98
503.87	22876.79
504.08	23169.65
504.28	23092.40
504.49	23294.66
504.70	23443.10
504.91	23713.59
505.12	23595.47
505.33	24076.17
505.54	24083.95
505.75	24286.12
505.95	24473.55
506.16	24468.56
506.37	24393.11
506.58	24889.46
506.79	24637.80
507.00	25097.94
507.21	24920.91
507.41	25052.64
507.62	25127.35
507.83	25586.17
508.04	25304.95
508.25	25747.15
508.46	25540.55
508.67	25981.51
508.87	25899.19
509.08	26158.54
509.29	26072.44
509.50	26241.28
509.71	26361.45
509.92	26435.18
510.12	26348.76
510.33	26481.46
510.54	26454.76
510.75	26630.72
510.96	26831.50
511.17	26944.63
511.37	26818.07
511.58	27044.82
511.79	26866.24
512.00	26863.78
512.21	27203.82
512.42	27119.12
512.62	27182.12
512.83	27443.76
513.04	27248.88
513.25	27463.02
513.46	26930.79
513.66	27616.94
513.87	27347.10
514.08	27531.42
514.29	27260.51
514.50	27265.67
514.71	27435.90
514.91	27198.75
515.12	27201.86
515.33	27425.09
515.54	27206.77
515.75	27478.01
515.95	27199.73
516.16	27124.61
516.37	27419.27
516.58	27371.51
516.78	27208.41
516.99	27316.54
517.20	27285.66
517.41	27222.34
517.62	27228.65
517.82	27055.88
518.03	27353.16
518.24	27558.53
518.45	26959.05
518.66	27215.37
518.86	26928.58
519.07	27161.96
519.28	26695.03
519.49	27033.02
519.69	27003.94
519.90	26937.01
520.11	26885.08
520.32	26761.79
520.52	27013.45
520.73	26670.37
520.94	26918.75
521.15	26784.07
521.36	26424.78
521.56	26858.54
521.77	26328.03
521.98	26720.59
522.19	26272.90
522.39	26447.71
522.60	26291.41
522.81	26352.03
523.02	26139.13
523.22	26371.45
523.43	26405.53
523.64	26268.31
523.84	26252.17
524.05	26414.13
524.26	26273.39
524.47	26104.88
524.67	26141.75
524.88	26125.36
525.09	26258.65
525.30	25969.47
525.50	25973.98
525.71	26022.47
525.92	25961.36
526.13	26083.50
526.33	25862.81
526.54	25776.14
526.75	25837.58
526.95	26009.78
527.16	25566.10
527.37	25905.82
527.58	25934.74
527.78	25851.18
527.99	25999.62
528.20	26060.40
528.40	25789.66
528.61	25726.01
528.82	25874.53
529.03	25873.38
529.23	25798.26
529.44	25919.67
529.65	25861.50
529.85	25903.61
530.06	25809.98
530.27	25827.75
530.47	25564.30
530.68	26024.03
530.89	25561.35
531.09	25963.74
531.30	25870.92
531.51	25694.64
531.72	25935.48
531.92	25871.33
532.13	26030.83
532.34	25901.23
532.54	25948.17
532.75	26044.10
532.96	25997.32
533.16	26110.78
533.37	26245.21
533.58	26062.94
533.78	26328.19
533.99	26326.97
534.20	26052.21
534.40	26268.72
534.61	26345.15
534.82	26393.73
535.02	26393.40
535.23	26444.44
535.44	26562.32
535.64	26508.09
535.85	26628.59
536.06	26639.90
536.26	26627.77
536.47	26689.21
536.68	27025.81
536.88	26709.77
537.09	27169.17
537.29	26828.55
537.50	27333.75
537.71	27091.27
537.91	27240.36
538.12	27384.54
538.33	27302.86
538.53	27395.43
538.74	27478.91
538.95	27622.51
539.15	27471.45
539.36	27714.83
539.56	27986.39
539.77	27788.31
539.98	27942.81
540.18	28096.00
540.39	28095.84
540.60	28280.40
540.80	28385.42
541.01	28505.92
541.21	28513.54
541.42	28709.98
541.63	28700.97
541.83	29003.50
542.04	29010.62
542.25	29053.88
542.45	29274.89
542.66	29329.70
542.86	29592.25
543.07	29093.53
543.28	29735.20
543.48	29676.87
543.69	29923.44
543.89	29920.66
544.10	30365.15
544.31	30279.30
544.51	30256.77
544.72	30464.76
544.92	30520.47
545.13	30902.62
545.33	30944.07
545.54	30882.06
545.75	31280.67
545.95	31167.95
546.16	31333.18
546.36	31826.99
546.57	31302.14
546.78	30904.01
546.98	31417.56
547.19	31029.27
547.39	31908.99
547.60	32262.06
547.80	32687.38
548.01	32893.41
548.22	32651.58
548.42	32919.05
548.63	33260.00
548.83	33177.75
549.04	33534.51
549.24	33434.81
549.45	33764.94
549.65	34160.94
549.86	33862.51
550.07	34107.36
550.27	34473.79
550.48	34608.30
550.68	34617.96
550.89	34816.86
551.09	35091.86
551.30	35087.03
551.50	35417.74
551.71	35349.66
551.91	35572.40
552.12	35808.57
552.33	36282.22
552.53	36029.10
552.74	36584.18
552.94	36696.98
553.15	36607.61
553.35	37025.39
553.56	36734.09
553.76	37292.20
553.97	37124.10
554.17	37390.58
554.38	38093.78
554.58	37740.46
554.79	38258.60
554.99	37927.56
555.20	38176.68
555.40	38641.24
555.61	38503.70
555.81	38359.77
556.02	39292.25
556.22	39307.32
556.43	39173.96
556.63	39397.59
556.84	39433.88
557.04	39967.09
557.25	39432.90
557.45	39904.51
557.66	39983.23
557.86	40001.42
558.07	40557.07
558.27	40453.53
558.48	40610.97
558.68	40784.56
558.89	40935.05
559.09	41151.39
559.30	41037.53
559.50	41382.16
559.71	41089.87
559.91	41787.66
560.12	41586.30
560.32	41686.90
560.53	41922.49
560.73	41803.79
560.94	42265.08
561.14	42002.86
561.35	42518.37
561.55	42369.03
561.76	42618.31
561.96	42072.24
562.17	42556.71
562.37	42885.28
562.57	42647.72
562.78	42673.20
562.98	43061.82
563.19	43150.13
563.39	43278.33
563.60	43349.85
563.80	42863.66
564.01	43453.64
564.21	43139.31
564.42	43113.43
564.62	43297.34
564.82	43724.95
565.03	43373.19
565.23	43499.10
565.44	43768.21
565.64	43491.89
565.85	43784.34
566.05	43568.41
566.25	43818.42
566.46	43440.69
566.66	43657.53
566.87	43665.72
567.07	43624.27
567.28	43629.93
567.48	43708.32
567.68	43179.29
567.89	43961.62
568.09	43555.71
568.30	43562.34
568.50	43803.59
568.71	43531.79
568.91	43830.05
569.11	43461.01
569.32	43503.03
569.52	43595.11
569.73	42976.79
569.93	43480.01
570.13	43220.58
570.34	43021.27
570.54	43452.08
570.75	43226.23
570.95	43191.25
571.15	43025.20
571.36	43542.76
571.56	42949.10
571.77	42868.66
571.97	42409.34
572.17	42971.14
572.38	42765.27
572.58	42849.98
572.79	42654.77
572.99	42667.14
573.19	42518.45
573.40	42392.79
573.60	42413.76
573.81	42214.45
574.01	42284.33
574.21	42103.70
574.42	42022.93
574.62	41653.88
574.82	41877.11
575.03	41517.98
575.23	41902.18
575.43	41403.78
575.64	41392.64
575.84	41540.02
576.05	41098.64
576.25	41218.98
576.45	40991.98
576.66	41278.12
576.86	40928.90
577.06	41100.85
577.27	40804.06
577.47	40770.63
577.67	40523.16
577.88	40099.23
578.08	40477.12
578.28	40514.80
578.49	40181.31
578.69	40199.74
578.89	39881.16
579.10	39887.06
579.30	40247.50
579.50	39800.22
579.71	39427.90
579.91	39876.74
580.11	39475.99
580.32	39418.89
580.52	39287.33
580.72	39575.44
580.93	39067.54
581.13	38901.49
581.33	39192.31
581.54	38796.80
581.74	38738.64
581.94	38712.02
582.15	38867.17
582.35	38486.08
582.55	38505.66
582.76	38189.05
582.96	38489.03
583.16	38134.32
583.37	38239.43
583.57	37825.49
583.77	38070.67
583.97	37284.83
584.18	38031.35
584.38	37843.19
584.58	37518.62
584.79	37844.00
584.99	37629.13
585.19	37449.81
585.40	37348.31
585.60	37510.76
585.80	37137.95
586.00	37283.60
586.21	37158.84
586.41	37117.63
586.61	37079.29
586.82	36968.21
587.02	36724.75
587.22	36997.95
587.42	36493.98
587.63	36898.58
587.83	36341.37
588.03	36558.70
588.23	36261.09
588.44	36481.45
588.64	36167.21
588.84	36463.76
589.05	36470.23
589.25	36440.00
589.45	36252.24
589.65	36006.08
589.86	36193.42
590.06	36114.45
590.26	35859.03
590.46	36011.81
590.67	35532.91
590.87	35974.62
591.07	36034.58
591.27	35654.89
591.48	35948.90
591.68	35345.73
591.88	35976.99
592.08	35286.50
592.29	35739.59
592.49	35548.81
592.69	35743.77
592.89	35499.00
593.10	35491.22
593.30	35483.60
593.50	35796.94
593.70	35114.80
593.90	35571.25
594.11	35474.26
594.31	35412.66
594.51	35544.87
594.71	35508.75
594.92	35542.83
595.12	35357.85
595.32	35378.66
595.52	35513.74
595.72	35099.64
595.93	35461.97
596.13	35221.21
596.33	35047.79
596.53	35451.65
596.73	35380.22
596.94	35342.29
597.14	35537.01
597.34	35318.86
597.54	35619.67
597.74	35261.93
597.95	35285.27
598.15	35330.82
598.35	35485.73
598.55	35554.29
598.75	35392.01
598.96	35791.12
599.16	35460.42
599.36	35531.52
599.56	35450.75
599.76	35425.93
599.97	35738.61
600.17	35523.57
600.37	35665.54
600.57	35185.99
600.77	35753.68
600.97	35670.21
601.18	36048.92
601.38	35720.59
601.58	35938.41
601.78	35825.61
601.98	35733.29
602.18	36034.58
602.39	36283.62
602.59	36075.54
602.79	36085.05
602.99	36103.23
603.19	36147.06
603.39	36028.52
603.60	36059.00
603.80	36188.84
604.00	36247.49
604.20	36383.31
604.40	36417.14
604.60	36361.69
604.80	36455.40
605.01	36663.88
605.21	36624.15
605.41	36632.18
605.61	36434.51
605.81	36783.81
606.01	37071.67
606.21	36772.51
606.42	37046.69
606.62	36882.61
606.82	37247.06
607.02	37104.28
607.22	37316.28
607.42	37611.03
607.62	37178.58
607.82	37494.54
608.03	37629.05
608.23	37534.84
608.43	37461.36
608.63	37872.59
608.83	37754.63
609.03	37737.67
609.23	37858.42
609.43	38064.69
609.63	37866.12
609.84	37909.38
610.04	38373.04
610.24	38446.52
610.44	38535.15
610.64	38373.04
610.84	38689.32
611.04	39005.29
611.24	38792.05
611.44	38577.75
611.64	38972.35
611.85	39066.48
612.05	39113.50
612.25	39262.02
612.45	39150.12
612.65	39483.44
612.85	39624.67
613.05	39475.91
613.25	39975.29
613.45	39835.37
613.65	39929.08
613.85	39682.67
614.05	40176.23
614.25	40350.72
614.46	40193.60
614.66	40174.51
614.86	40037.05
615.06	40207.85
615.26	40579.60
615.46	40187.45
615.66	40876.72
615.86	41048.99
616.06	40912.19
616.26	41000.50
616.46	41579.50
616.66	41341.94
616.86	41695.09
617.06	41391.58
617.26	41891.20
617.46	41765.70
617.66	41730.23
617.86	41631.27
618.07	41929.13
618.27	42016.78
618.47	42171.69
618.67	42273.93
618.87	42454.80
619.07	42381.40
619.27	42401.06
619.47	42561.71
619.67	42946.64
619.87	42604.63
620.07	43012.01
620.27	43085.82
620.47	42942.87
620.67	43228.11
620.87	43398.92
621.07	43623.86
621.27	43559.23
621.47	43365.66
621.67	43850.04
621.87	43682.19
622.07	44157.65
622.27	44221.63
622.47	43942.94
622.67	44255.46
622.87	44086.62
623.07	44542.26
623.27	44923.18
623.47	44307.72
623.67	44764.50
623.87	45121.91
624.07	45024.18
624.27	44785.23
624.47	45164.51
624.67	45006.73
624.87	45219.89
625.07	44991.58
625.27	45513.73
625.47	45261.34
625.67	45256.01
625.87	45744.25
626.07	45738.27
626.27	46031.21
626.47	46050.63
626.67	46016.71
626.87	45925.86
627.07	46404.19
627.27	46350.12
627.47	46560.00
627.67	46390.83
627.87	46442.12
628.07	46826.15
628.27	46568.19
628.47	46431.38
628.67	46965.58
628.86	47025.95
629.06	46788.80
629.26	46827.71
629.46	47244.43
629.66	47237.55
629.86	46767.41
630.06	47316.43
630.26	47174.55
630.46	47626.25
630.66	47208.38
630.86	47449.31
631.06	47617.65
631.26	47320.20
631.46	47997.01
631.66	47904.77
631.86	47658.12
632.06	48073.77
632.26	47684.82
632.45	47825.40
632.65	47885.36
632.85	48054.77
633.05	48039.94
633.25	48272.26
633.45	47845.71
633.65	47986.28
633.85	48504.50
634.05	47821.54
634.25	48199.68
634.45	48164.54
634.65	48511.05
634.84	48083.68
635.04	48267.43
635.24	47856.44
635.44	48207.96
635.64	47789.35
635.84	48208.86
636.04	48180.59
636.24	48266.61
636.44	48266.12
636.64	47727.75
636.84	48511.14
637.03	47863.32
637.23	48097.28
637.43	48135.21
637.63	47913.05
637.83	48176.58
638.03	48169.95
638.23	47716.77
638.43	48086.39
638.62	48258.25
638.82	47311.68
639.02	48179.61
639.22	47775.02
639.42	48119.24
639.62	47617.81
639.82	47786.40
640.02	47732.25
640.21	47954.58
640.41	47329.70
640.61	47826.62
640.81	47556.70
641.01	47520.41
641.21	47324.22
641.41	47970.06
641.61	47220.83
641.80	47316.19
642.00	47451.19
642.20	47517.95
642.40	46791.99
642.60	47171.11
642.80	47268.35
642.99	46900.12
643.19	47142.52
643.39	46680.25
643.59	46882.51
643.79	46731.53
643.99	46925.03
644.19	46840.08
644.38	46372.89
644.58	46638.39
644.78	46370.52
644.98	46366.18
645.18	46458.01
645.38	46630.61
645.57	46189.64
645.77	46259.35
645.97	45961.74
646.17	46150.73
646.37	45975.10
646.56	45777.75
646.76	45683.55
646.96	45672.24
647.16	45374.71
647.36	45496.69
647.55	45137.48
647.75	45372.75
647.95	44868.62
648.15	45064.90
648.35	44991.42
648.55	44951.28
648.74	44764.34
648.94	44786.21
649.14	45055.48
649.34	44580.02
649.54	44442.56
649.73	44340.24
649.93	44139.05
650.13	44121.68
650.33	43814.16
650.52	44078.10
650.72	44129.79
650.92	43792.62
651.12	43504.67
651.32	43815.96
651.51	43722.99
651.71	43641.31
651.91	43266.37
652.11	43053.55
652.30	42854.89
652.50	43191.82
652.70	43112.61
652.90	42643.71
653.10	42863.74
653.29	42629.94
653.49	42780.92
653.69	42325.62
653.89	42305.87
654.08	42240.99
654.28	42481.83
654.48	42140.23
654.68	42211.75
654.87	41989.75
655.07	41573.85
655.27	41957.06
655.47	41506.59
655.66	41424.26
655.86	41236.26
656.06	41698.94
656.26	40828.39
656.45	41194.81
656.65	40955.77
656.85	40802.42
657.04	40501.86
657.24	40460.33
657.44	40258.56
657.64	40669.71
657.83	39813.74
658.03	40367.35
658.23	40126.43
658.43	39934.16
658.62	39867.64
658.82	39741.90
659.02	39587.15
659.21	39617.79
659.41	39345.74
659.61	39682.18
659.81	39343.94
660.00	39047.88
660.20	39238.34
660.40	39067.71
660.59	39008.23
660.79	38673.51
660.99	38953.02
661.19	38878.39
661.38	38763.38
661.58	38196.75
661.78	38458.31
661.97	38137.52
662.17	38522.21
662.37	37981.30
662.56	37945.26
662.76	37817.79
662.96	37897.74
663.15	37783.06
663.35	37696.88
663.55	37401.64
663.74	37214.54
663.94	37467.18
664.14	37000.49
664.33	37159.49
664.53	36992.54
664.73	37288.43
664.93	36762.19
665.12	37135.49
665.32	36906.69
665.52	36892.03
665.71	36674.45
665.91	36725.98
666.10	36435.66
666.30	36650.61
666.50	36265.02
666.69	36099.38
666.89	36247.16
667.09	36482.60
667.28	36160.74
667.48	36018.20
667.68	36028.19
667.87	35953.81
668.07	35640.72
668.27	35893.85
668.46	35802.84
668.66	35483.76
668.86	35649.73
669.05	35360.15
669.25	35576.49
669.44	35290.52
669.64	35235.71
669.84	35212.69
670.03	35443.29
670.23	35072.37
670.43	35073.76
670.62	34933.35
670.82	34884.53
671.01	35027.06
671.21	34786.39
671.41	34742.56
671.60	34979.06
671.80	34941.05
672.00	34696.11
672.19	34772.22
672.39	34616.73
672.58	34462.40
672.78	34355.49
672.98	34601.33
673.17	34440.28
673.37	33926.49
673.56	34134.89
673.76	34187.73
673.96	34286.36
674.15	34110.39
674.35	34141.85
674.54	33986.61
674.74	33977.77
674.94	33920.01
675.13	33932.30
675.33	33638.62
675.52	34090.32
675.72	33912.97
675.91	33809.51
676.11	34037.08
676.31	33610.69
676.50	33707.19
676.70	33662.79
676.89	33712.43
677.09	33713.74
677.28	33780.18
677.48	33428.75
677.68	33732.42
677.87	33460.20
678.07	33460.94
678.26	33386.40
678.46	33506.98
678.65	33259.01
678.85	33452.75
679.04	33070.85
679.24	33224.61
679.44	33039.55
679.63	33201.34
679.83	32936.17
680.02	33115.16
680.22	32924.46
680.41	33133.68
680.61	33008.50
680.80	32989.58
681.00	33042.99
681.19	32961.65
681.39	32843.03
681.59	32749.72
681.78	32692.38
681.98	32955.26
682.17	32565.98
682.37	32807.89
682.56	32537.31
682.76	32834.10
682.95	32581.95
683.15	32689.35
683.34	32572.21
683.54	32587.28
683.73	32693.45
683.93	32398.78
684.12	32569.17
684.32	32728.75
684.51	32390.84
684.71	32646.18
684.90	32509.46
685.10	32522.15
685.29	32458.09
685.49	32588.59
685.68	32592.77
685.88	32546.32
686.07	32250.51
686.27	32681.98
686.46	32449.74
686.66	32364.13
686.85	32642.49
687.05	32494.63
687.24	32420.16
687.44	32657.57
687.63	32578.51
687.83	32247.56
688.02	32600.88
688.22	32592.77
688.41	32429.42
688.61	32414.35
688.80	32517.24
689.00	32271.73
689.19	32168.10
689.39	32558.03
689.58	32510.11
689.77	32504.05
689.97	32640.36
690.16	32492.66
690.36	32266.24
690.55	32107.81
690.75	32676.82
690.94	32360.12
691.14	32575.48
691.33	32259.28
691.53	32501.10
691.72	32378.39
691.91	32485.70
692.11	32410.58
692.30	32484.06
692.50	32602.02
692.69	32403.13
692.89	32438.92
693.08	32363.31
693.28	32396.16
693.47	32574.17
693.66	32514.70
693.86	32475.05
694.05	32427.46
694.25	32445.48
694.44	32592.77
694.64	32514.78
694.83	32621.77
695.02	32577.28
695.22	32805.84
695.41	32591.29
695.61	32555.41
695.80	32606.37
695.99	32610.22
696.19	32733.26
696.38	32807.07
696.58	32531.57
696.77	32966.23
696.96	32821.98
697.16	32812.47
697.35	32863.34
697.55	32840.00
697.74	32761.36
697.93	33145.80
698.13	32807.56
698.32	32954.03
698.52	32797.73
698.71	32511.83
698.90	33152.35
699.10	32829.92
699.29	32969.92
699.49	33149.32
699.68	32932.32
699.87	32962.06
700.07	33272.86
700.26	32960.25
700.45	33017.11
700.65	32914.13
700.84	33251.80
701.04	33043.89
701.23	33211.01
701.42	33118.85
701.62	33158.25
701.81	33164.64
702.00	33145.80
702.20	32988.52
702.39	33219.04
702.58	33423.01
702.78	33165.05
702.97	33309.47
703.17	33328.23
703.36	33365.26
703.55	33256.39
703.75	33295.79
703.94	33535.41
704.13	33249.84
704.33	33319.14
704.52	33639.69
704.71	33529.18
704.91	33500.10
705.10	33435.06
705.29	33464.06
705.49	33564.08
705.68	33616.42
705.87	33740.20
706.07	33502.64
706.26	33837.11
706.45	33566.04
706.65	33523.77
706.84	33965.48
707.03	34234.42
707.23	33742.50
707.42	33658.53
707.61	34051.82
707.80	33788.54
708.00	33825.07
708.19	33697.03
708.38	34031.01
708.58	33503.05
708.77	34142.01
708.96	33774.28
709.16	33780.92
709.35	34444.21
709.54	34147.59
709.74	34066.81
709.93	33894.05
710.12	34406.94
710.31	34571.68
710.51	34264.32
710.70	34314.45
710.89	34369.50
711.09	34118.91
711.28	34075.01
711.47	34449.78
711.66	34353.86
711.86	34383.18
712.05	34411.45
712.24	34597.65
712.43	34430.04
712.63	34253.34
712.82	34665.48
713.01	34623.29
713.21	34323.96
713.40	34424.06
713.59	34839.31
713.78	34360.74
713.98	34752.23
714.17	34482.71
714.36	34633.77
714.55	34351.07
714.75	34516.63
714.94	34615.67
715.13	34800.72
715.32	34428.57
715.52	34650.40
715.71	34445.03
715.90	34522.85
716.09	34453.88
716.29	34873.30
716.48	34805.15
716.67	34459.12
716.86	34760.58
717.06	34610.18
717.25	34818.99
717.44	34903.78
717.63	35004.46
717.82	34674.81
718.02	34897.14
718.21	35125.29
718.40	35139.95
718.59	35102.59
718.79	34863.88
718.98	34859.21
719.17	35179.76
719.36	35258.57
719.55	35002.33
719.75	34968.17
719.94	34964.40
720.13	35240.71
720.32	35201.55
720.51	34947.52
720.71	35082.20
720.90	34729.95
721.09	35053.36
721.28	34807.44
721.47	35176.81
721.67	35110.54
721.86	35052.95
722.05	35051.72
722.24	34702.50
722.43	35174.68
722.63	34905.58
722.82	35028.95
723.01	35175.50
723.20	34938.92
723.39	35060.57
723.58	35348.43
723.78	34956.94
723.97	35344.75
724.16	35103.58
724.35	35141.51
724.54	34949.90
724.73	35138.72
724.93	34864.87
725.12	35052.62
725.31	34448.31
725.50	34865.93
725.69	35036.24
725.88	34813.99
726.08	34592.24
726.27	35000.85
726.46	34420.87
726.65	35217.53
726.84	34701.77
727.03	34866.50
727.23	35140.19
727.42	34708.89
727.61	34824.32
727.80	34700.70
727.99	34845.94
728.18	34912.71
728.37	34773.61
728.56	34700.05
728.76	34619.85
728.95	34856.84
729.14	34714.14
729.33	34706.84
729.52	34710.29
729.71	34604.86
729.90	34626.73
730.09	34331.82
730.29	34545.22
730.48	34125.06
730.67	34497.54
730.86	34143.33
731.05	34539.16
731.24	34245.31
731.43	34392.11
731.62	34142.51
731.81	34148.73
732.01	34470.51
732.20	34142.34
732.39	34537.52
732.58	34395.39
732.77	33966.87
732.96	34333.70
733.15	34383.10
733.34	34054.61
733.53	34100.15
733.72	34064.85
733.92	33881.10
734.11	33759.54
734.30	33796.07
734.49	33899.13
734.68	33680.73
734.87	33619.21
735.06	33585.05
735.25	33714.23
735.44	33434.56
735.63	33579.40
735.82	33623.88
736.01	33453.08
736.20	33414.58
736.40	33685.65
736.59	33452.01
736.78	33628.88
736.97	33304.89
737.16	33345.19
737.35	33395.16
737.54	33410.81
737.73	33207.98
737.92	33340.69
738.11	33482.81
738.30	33161.86
738.49	33136.87
738.68	33050.94
738.87	33093.54
739.06	32863.92
739.25	32972.30
739.44	32955.01
739.63	32738.34
739.82	32616.20
740.01	32819.68
740.20	32604.65
740.39	32529.61
740.59	32470.46
740.78	32504.62
740.97	32329.89
741.16	32100.85
741.35	32269.43
741.54	32059.31
741.73	32178.42
741.92	32068.81
742.11	31946.92
742.30	32039.16
742.49	31689.53
742.68	31903.75
742.87	31740.24
743.06	31422.89
743.25	31735.65
743.44	31490.39
743.63	31706.90
743.82	31456.06
744.01	31365.62
744.20	31157.63
744.39	31395.52
744.58	31266.34
744.77	31148.38
744.96	30780.56
745.15	31026.40
745.34	30884.19
745.53	30987.98
745.72	30830.20
745.91	30843.47
746.10	30519.57
746.29	30869.77
746.48	30699.54
746.67	30619.59
746.86	30636.55
747.04	30490.73
747.23	30344.43
747.42	30560.12
747.61	30191.81
747.80	30594.77
747.99	29946.46
748.18	30307.56
748.37	30106.21
748.56	29715.94
748.75	29860.37
748.94	29833.74
749.13	29808.35
749.32	29504.59
749.51	29564.89
749.70	29568.41
749.89	29427.59
750.08	29439.39
750.27	28976.79
750.46	29137.60
750.65	29279.81
750.84	28919.20
751.02	29126.29
751.21	28945.91
751.40	28991.62
751.59	28979.99
751.78	28836.30
751.97	28834.91
752.16	28598.90
752.35	28820.25
752.54	28401.56
752.73	28611.11
752.92	28230.59
753.11	28254.27
753.30	28274.91
753.49	28346.59
753.67	28233.46
753.86	27985.49
754.05	28105.18
754.24	27898.58
754.43	27842.05
754.62	27848.61
754.81	27592.36
755.00	27639.80
755.19	27534.86
755.38	27089.22
755.56	27398.71
755.75	27627.26
755.94	27250.93
756.13	27245.44
756.32	27328.75
756.51	27147.71
756.70	27168.03
756.89	27050.31
757.08	26906.87
757.26	26890.16
757.45	26720.09
757.64	26546.75
757.83	26796.61
758.02	26466.56
758.21	26355.15
758.40	26426.50
758.59	26379.39
758.77	26179.10
758.96	26272.33
759.15	26231.78
759.34	25981.51
759.53	26055.90
759.72	26005.68
759.91	25743.95
760.09	25910.25
760.28	25954.89
760.47	25655.81
760.66	25833.57
760.85	25418.16
761.04	25759.43
761.23	25590.93
761.41	25569.30
761.60	25564.96
761.79	25461.49
761.98	25159.05
762.17	25363.11
762.36	24987.76
762.54	25125.96
762.73	25044.36
762.92	24817.04
763.11	25045.02
763.30	25086.63
763.49	24992.26
763.67	24884.62
763.86	24872.83
764.05	24876.76
764.24	24788.29
764.43	24902.64
764.61	24472.74
764.80	24479.78
764.99	24742.41
765.18	24471.51
765.37	24482.89
765.55	24447.91
765.74	24329.38
765.93	24126.38
766.12	24280.39
766.31	24201.09
766.49	24113.36
766.68	24173.24
766.87	24062.40
767.06	23884.39
767.25	24009.24
767.43	23912.57
767.62	23796.99
767.81	23871.78
768.00	23680.74
768.19	23566.71
768.37	23630.61
768.56	23576.87
768.75	23502.00
768.94	23558.85
769.12	23361.59
769.31	23234.04
769.50	23292.94
769.69	23403.94
769.88	22988.78
770.06	23368.31
770.25	23078.23
770.44	23014.09
770.63	23205.04
770.81	23012.12
771.00	22923.41
771.19	23001.72
771.38	22993.45
771.56	23086.26
771.75	22628.99
771.94	22829.61
772.13	22796.84
772.31	22585.57
772.50	22734.58
772.69	22569.76
772.88	22727.70
773.06	22370.21
773.25	22521.59
773.44	22490.55
773.62	22395.93
773.81	22419.77
774.00	22229.96
774.19	22244.05
774.37	22078.25
774.56	22235.45
774.75	21907.12
774.94	22069.32
775.12	21898.77
775.31	21945.05
775.50	21901.80
775.68	21803.66
775.87	21813.49
776.06	21684.06
776.25	21744.92
776.43	21651.45
776.62	21762.70
776.81	21527.59
776.99	21642.52
777.18	21581.99
777.37	21388.99
777.55	21493.60
777.74	21503.51
777.93	21423.96
778.12	21379.56
778.30	21260.70
778.49	21295.68
778.68	21348.60
778.86	21306.33
779.05	21316.82
779.24	21349.99
779.42	21148.23
779.61	21134.96
779.80	21131.84
779.98	21139.46
780.17	21215.97
780.36	20966.37
780.54	21138.97
780.73	20809.49
780.92	21156.75
781.10	20986.68
781.29	20908.94
781.48	20740.03
781.66	20843.08
781.85	20853.89
782.04	20681.94
782.22	20749.04
782.41	20501.31
782.60	20633.53
782.78	20548.34
782.97	20660.15
783.16	20364.02
783.34	20400.31
783.53	20479.85
783.71	20372.87
783.90	20381.47
784.09	20395.56
784.27	20375.57
784.46	20292.42
784.65	20326.34
784.83	20120.72
785.02	20094.67
785.20	20335.26
785.39	19946.07
785.58	20215.34
785.76	20100.49
785.95	20080.91
786.14	20182.73
786.32	20205.75
786.51	20066.33
786.69	20199.93
786.88	20032.08
787.07	20003.33
787.25	20008.16
787.44	19977.94
787.62	19892.90
787.81	20051.25
788.00	20023.24
788.18	19871.44
788.37	19904.21
788.55	20193.38
788.74	20013.32
788.93	19998.58
789.11	20107.12
789.30	19982.69
789.48	19869.39
789.67	20036.92
789.86	19912.97
790.04	19949.84
790.23	19837.28
790.41	19777.40
790.60	19914.45
790.78	19864.31
790.97	19676.88
791.16	19779.86
791.34	19996.94
791.53	19767.24
791.71	20059.61
791.90	19841.54
792.08	19947.13
792.27	19925.43
792.46	19886.19
792.64	20046.91
792.83	19912.32
793.01	19954.26
793.20	19881.11
793.38	19908.55
793.57	19848.01
793.75	19893.07
793.94	19951.23
794.12	20065.34
794.31	19908.14
794.50	20020.37
794.68	20106.63
794.87	20027.82
795.05	20170.94
795.24	20032.17
795.42	19998.41
795.61	20233.85
795.79	20242.86
795.98	19968.27
796.16	20100.08
796.35	20184.45
796.53	19957.46
796.72	20174.79
796.90	20164.30
797.09	20136.20
797.27	20053.55
797.46	20058.63
797.64	20185.84
797.83	20075.83
798.01	20127.35
798.20	20250.40
798.38	20162.50
798.57	20289.47
798.75	20311.43
798.94	20065.75
799.12	20540.96
799.31	20309.05
799.49	20280.54
799.68	20252.77
799.86	20240.65
800.05	20230.16
800.23	20111.63
800.42	20061.00
800.60	20268.50
800.79	20044.70
800.97	20121.37
801.16	20240.16
801.34	19998.66
801.53	20037.00
801.71	20122.03
801.90	19981.46
802.08	20211.24
802.27	20071.73
802.45	20026.84
802.64	20142.92
802.82	20260.23
803.00	19932.72
803.19	20132.84
803.37	20212.06
803.56	20067.14
803.74	20072.22
803.93	20166.51
804.11	20039.37
804.30	20041.83
804.48	20080.66
804.67	20140.05
804.85	20054.61
805.03	20220.41
805.22	20039.95
805.40	19972.28
805.59	20096.47
805.77	20116.95
805.96	20041.75
806.14	20044.13
806.32	20077.14
806.51	20302.25
806.69	20116.13
806.88	20103.60
807.06	20099.01
807.25	20090.66
807.43	20121.37
807.61	20136.86
807.80	20081.56
807.98	20227.87
808.17	20095.73
808.35	20021.02
808.53	20288.33
808.72	20188.14
808.90	20170.53
809.09	20177.24
809.27	20167.09
809.45	19970.89
809.64	20117.03
809.82	20028.15
810.01	20063.54
810.19	20119.49
810.37	20033.89
810.56	19998.01
810.74	20158.81
810.93	19971.05
811.11	19990.88
811.29	19929.11
811.48	20021.19
811.66	19999.32
811.84	19990.71
812.03	19991.62
812.21	20000.95
812.40	20068.05
812.58	20204.28
812.76	19948.53
812.95	20115.39
813.13	19919.53
813.31	20006.61
813.50	20064.77
813.68	19997.10
813.86	20128.91
814.05	20081.97
814.23	19882.17
814.42	19983.75
814.60	19874.31
814.78	20036.67
814.97	19895.85
815.15	19872.10
815.33	19973.27
815.52	19946.56
815.70	19978.26
815.88	20050.76
816.07	19858.50
816.25	19984.41
816.43	19960.49
816.62	19786.65
816.80	19860.38
816.98	19809.26
817.17	19825.81
817.35	19832.78
817.53	19820.90
817.72	19963.52
817.90	19718.58
818.08	19819.75
818.26	20002.02
818.45	19799.60
818.63	19910.27
818.81	19919.04
819.00	19698.26
819.18	19912.56
819.36	19875.13
819.55	19900.77
819.73	19787.15
819.91	19940.50
820.09	19863.90
820.28	19981.05
820.46	19803.86
820.64	20081.64
820.83	19858.09
821.01	19885.94
821.19	19892.00
821.38	19962.37
821.56	19820.08
821.74	19916.33
821.92	19781.25
822.11	19973.92
822.29	19752.74
822.47	19810.00
822.65	19910.93
822.84	19950.41
823.02	19796.89
823.20	20050.92
823.39	19858.25
823.57	19869.23
823.75	19939.11
823.93	19815.82
824.12	19917.07
824.30	19807.71
824.48	19776.33
824.66	19946.72
824.85	19598.98
825.03	19854.81
825.21	19909.94
825.39	19824.91
825.58	19920.84
825.76	19845.72
825.94	19935.50
826.12	19874.14
826.31	19752.00
826.49	19781.00
826.67	19804.43
826.85	19745.78
827.03	19770.60
827.22	19866.85
827.40	19731.20
827.58	19701.54
827.76	19770.52
827.95	19701.46
828.13	19739.80
828.31	19699.82
828.49	19882.17
828.67	19738.16
828.86	19678.36
829.04	19749.96
829.22	19681.72
829.40	19621.83
829.58	19641.17
829.77	19694.25
829.95	19754.22
830.13	19750.45
830.31	19712.60
830.49	19738.16
830.68	19733.49
830.86	19598.90
831.04	19573.75
831.22	19667.55
831.40	19664.92
831.59	19781.66
831.77	19609.22
831.95	19793.62
832.13	19580.30
832.31	19697.12
832.50	19728.66
832.68	19647.07
832.86	19695.89
833.04	19784.03
833.22	19622.90
833.40	19940.66
833.59	19765.03
833.77	19970.07
833.95	19476.35
834.13	20094.67
834.31	19830.24
834.49	19888.23
834.67	19830.65
834.86	19853.99
835.04	19875.86
835.22	19874.06
835.40	19824.99
835.58	19803.53
835.76	19834.17
835.95	19835.23
836.13	19709.49
836.31	19653.70
836.49	19812.13
836.67	19849.00
836.85	19866.20
837.03	19835.81
837.21	19900.11
837.40	19824.01
837.58	19595.62
837.76	19784.03
837.94	19736.19
838.12	19895.12
838.30	19710.88
838.48	19724.56
838.66	19700.89
838.85	19729.80
839.03	19723.33
839.21	19719.97
839.39	19670.33
839.57	19799.52
839.75	19714.65
839.93	19739.22
840.11	19699.17
840.29	19724.48
840.47	19750.77
840.66	19718.42
840.84	19733.74
841.02	19697.12
841.20	19757.33
841.38	19771.01
841.56	19721.12
841.74	19982.85
841.92	19699.82
842.10	19654.27
842.28	19856.20
842.46	19669.35
842.65	19664.19
842.83	19722.35
843.01	19826.88
843.19	19574.24
843.37	19773.88
843.55	19670.49
843.73	19804.10
843.91	19783.13
844.09	19654.19
844.27	19884.14
844.45	19609.79
844.63	19694.00
844.81	19767.73
844.99	19786.90
845.17	19675.98
845.35	19802.14
845.54	19716.94
845.72	19708.42
845.90	19699.41
846.08	19732.59
846.26	19524.84
846.44	19853.66
846.62	19633.88
846.80	19642.48
846.98	19671.07
847.16	19687.04
847.34	19737.59
847.52	19681.55
847.70	19576.62
847.88	19670.41
848.06	19516.73
848.24	19635.35
848.42	19639.53
848.60	19494.70
848.78	19664.02
848.96	19537.46
849.14	19463.90
849.32	19603.48
849.50	19447.84
849.68	19608.40
849.86	19570.72
850.04	19519.35
850.22	19473.32
850.40	19380.42
850.58	19541.31
850.76	19821.22
850.94	19237.23
851.12	19557.53
851.30	19417.61
851.48	19548.11
851.66	19326.60
851.84	19379.19
852.02	19377.55
852.20	19475.28
852.38	19292.60
852.56	19416.79
852.74	19413.43
852.92	19364.94
853.10	19263.03
853.28	19445.30
853.46	19047.75
853.64	19342.66
853.82	19179.80
854.00	19255.25
854.18	19156.62
854.36	19103.86
854.54	19229.77
854.72	19036.69
854.90	19010.56
855.07	19166.20
855.25	19057.82
855.43	19116.31
855.61	19061.76
855.79	19039.64
855.97	19136.22
856.15	19126.64
856.33	19042.59
856.51	19219.04
856.69	19024.73
856.87	19225.59
857.05	19078.30
857.23	19199.54
857.41	19011.70
857.59	19042.18
857.77	19057.82
857.94	19058.81
858.12	19179.23
858.30	19063.72
858.48	19093.87
858.66	19038.57
858.84	19122.54
859.02	18920.77
859.20	18839.67
859.38	19097.80
859.56	19008.34
859.74	18984.83
859.92	18998.51
860.09	18843.61
860.27	18975.82
860.45	18755.87
860.63	18739.73
860.81	18773.48
860.99	18736.29
861.17	18573.44
861.35	18243.39
861.53	18197.19
861.70	18179.90
861.88	18571.06
862.06	18556.81
862.24	18224.63
862.42	18250.84
862.60	18512.74
862.78	18559.18
862.96	18639.55
863.14	18496.60
863.31	18549.19
863.49	18505.53
863.67	18485.46
863.85	18449.90
864.03	18591.21
864.21	18481.69
864.39	18475.79
864.56	18369.13
864.74	18434.50
864.92	18284.51
865.10	18232.33
865.28	18330.06
865.46	18476.53
865.64	18148.77
865.81	18323.42
865.99	18108.47
866.17	18324.24
866.35	18110.84
866.53	18077.99
866.71	18119.94
866.88	18161.80
867.06	17972.40
867.24	18058.33
867.42	17935.95
867.60	17941.03
867.78	17912.52
867.95	18048.67
868.13	17815.20
868.31	17984.44
868.49	17927.18
868.67	17858.94
868.84	17862.30
869.02	17825.85
869.20	17535.61
869.38	17794.55
869.56	17695.92
869.73	17639.32
869.91	17677.82
870.09	17686.59
870.27	17551.17
870.45	17593.69
870.62	17503.09
870.80	17621.71
870.98	17561.33
871.16	17591.72
871.34	17576.41
871.51	17650.95
871.69	17428.71
871.87	17522.42
872.05	17471.63
872.23	17490.31
872.40	17351.78
872.58	17473.92
872.76	17333.76
872.94	17272.49
873.11	17319.34
873.29	17181.23
873.47	17259.95
873.65	17133.47
873.83	17041.64
874.00	17076.29
874.18	17076.13
874.36	17013.62
874.54	16981.43
874.71	16907.29
874.89	16811.78
875.07	16905.08
875.25	16874.20
875.42	16868.22
875.60	16816.12
875.78	16973.48
875.96	16812.27
876.13	16933.92
876.31	16714.13
876.49	16777.62
876.66	16597.15
876.84	16915.73
877.02	16676.61
877.20	16734.69
877.37	16712.33
877.55	16704.63
877.73	16699.30
877.91	16609.19
878.08	16747.96
878.26	16663.26
878.44	16658.34
878.61	16620.74
878.79	16498.93
878.97	16513.67
879.15	16612.63
879.32	16582.73
879.50	16527.27
879.68	16623.28
879.85	16432.00
880.03	16583.80
880.21	16429.62
880.38	16552.09
880.56	16435.28
880.74	16602.23
880.92	16335.83
881.09	16466.90
881.27	16434.62
881.45	16425.53
881.62	16384.73
881.80	16384.98
881.98	16297.98
882.15	16446.99
882.33	16260.87
882.51	16341.56
882.68	16186.33
882.86	16357.86
883.04	16166.09
883.21	16179.04
883.39	16235.97
883.57	16157.00
883.74	16197.63
883.92	16208.61
884.10	16181.90
884.27	16175.18
884.45	16017.00
884.63	16231.14
884.80	16095.56
884.98	16158.47
885.16	16086.22
885.33	16161.18
885.51	16126.44
885.69	16095.40
885.86	16054.19
886.04	16134.72
886.21	15927.54
886.39	16189.93
886.57	15861.44
886.74	16151.43
886.92	16065.25
887.10	16098.10
887.27	16042.31
887.45	16034.86
887.62	16001.44
887.80	15983.99
887.98	16166.83
888.15	16093.59
888.33	15980.96
888.51	16117.43
888.68	15997.09
888.86	16110.39
889.03	16025.52
889.21	16058.78
889.39	16143.81
889.56	16101.62
889.74	16028.88
889.91	16058.61
890.09	16020.93
890.27	16042.89
890.44	16031.83
890.62	16002.75
890.79	15998.90
890.97	15974.07
891.14	15949.91
891.32	15943.11
891.50	15797.54
891.67	15900.27
891.85	15836.12
892.02	15749.62
892.20	15939.67
892.38	15802.21
892.55	15724.47
892.73	15778.04
892.90	15700.88
893.08	15760.92
893.25	15703.82
893.43	15833.50
893.60	15708.99
893.78	15847.18
893.96	15782.22
894.13	15811.06
894.31	15882.98
894.48	15785.09
894.66	15810.73
894.83	15776.98
895.01	15795.66
895.18	15784.35
895.36	15689.32
895.53	15748.72
895.71	15663.19
895.89	15675.07
896.06	15553.34
896.24	15618.30
896.41	15551.70
896.59	15606.42
896.76	15429.64
896.94	15547.28
897.11	15558.17
897.29	15553.99
897.46	15409.24
897.64	15455.94
897.81	15432.51
897.99	15259.82
898.16	15493.05
898.34	15430.46
898.51	15414.65
898.69	15322.74
898.86	15309.55
899.04	15363.86
899.21	15267.03
899.39	15317.91
899.56	15263.67
899.74	15382.87
899.91	15242.21
900.09	15135.47
900.26	15182.00
900.44	15081.57
900.61	15091.15
900.79	15226.07
900.96	15075.26
901.14	15020.46
901.31	14983.68
901.49	14945.75
901.66	14989.90
901.84	14957.87
902.01	14855.39
902.19	14893.57
902.36	14719.32
902.54	14744.15
902.71	14721.29
902.88	14761.92
903.06	14507.65
903.23	14777.16
903.41	14551.47
903.58	14544.18
903.76	14434.41
903.93	14553.11
904.11	14575.48
904.28	14504.62
904.45	14485.45
904.63	14422.45
904.80	14257.39
904.98	14351.76
905.15	14262.79
905.33	14349.79
905.50	14262.30
905.68	14243.13
905.85	14144.50
906.02	14146.88
906.20	14176.37
906.37	14013.68
906.55	13922.50
906.72	14080.19
906.90	13935.77
907.07	13844.27
907.24	13927.25
907.42	13811.50
907.59	13770.38
907.77	13749.08
907.94	13692.72
908.11	13692.96
908.29	13654.71
908.46	13639.64
908.64	13570.00
908.81	13562.80
908.98	13500.46
909.16	13479.40
909.33	13394.70
909.51	13346.69
909.68	13325.89
909.85	13302.05
910.03	13295.00
910.20	13191.46
910.37	13171.96
910.55	13118.47
910.72	13082.51
910.90	13038.43
911.07	12957.33
911.24	12927.52
911.42	13011.65
911.59	12815.45
911.76	12862.06
911.94	12803.16
912.11	12800.30
912.29	12789.81
912.46	12708.79
912.63	12730.34
912.81	12573.14
912.98	12673.98
913.15	12531.11
913.33	12617.37
913.50	12567.16
913.67	12470.90
913.85	12405.20
914.02	12407.00
914.19	12345.97
914.37	12325.58
914.54	12267.82
914.71	12201.14
914.89	12197.46
915.06	12183.28
915.23	12160.10
915.41	12106.77
915.58	12059.67
915.75	12023.95
915.93	12002.33
916.10	11895.75
916.27	11841.03
916.45	11835.13
916.62	11758.04
916.79	11786.22
916.97	11693.90
917.14	11692.92
917.31	11650.98
917.49	11634.02
917.66	11607.72
917.83	11544.73
918.00	11533.91
918.18	11521.22
918.35	11396.29
918.52	11461.91
918.70	11377.86
918.87	11353.77
919.04	11346.16
919.21	11277.34
919.39	11172.65
919.56	11200.75
919.73	11094.01
919.91	11160.86
920.08	11101.87
920.25	11016.35
920.42	11101.55
920.60	10988.99
920.77	10935.83
920.94	10980.80
921.11	10864.47
921.29	10946.23
921.46	10785.59
921.63	10873.81
921.81	10770.84
921.98	10773.79
922.15	10751.02
922.32	10762.89
922.50	10657.47
922.67	10671.15
922.84	10610.36
923.01	10543.52
923.19	10569.73
923.36	10548.10
923.53	10363.38
923.70	10434.65
923.87	10374.76
924.05	10392.21
924.22	10246.89
924.39	10314.55
924.56	10208.63
924.74	10238.21
924.91	10226.90
925.08	10132.94
925.25	10117.38
925.43	10123.19
925.60	10006.78
925.77	10124.99
925.94	9985.49
926.11	9983.19
926.29	9908.73
926.46	9947.97
926.63	9893.98
926.80	9877.68
926.97	9802.40
927.15	9815.83
927.32	9718.27
927.49	9675.18
927.66	9670.34
927.83	9701.47
928.01	9583.35
928.18	9564.75
928.35	9501.02
928.52	9565.49
928.69	9398.21
928.87	9402.14
929.04	9395.02
929.21	9382.48
929.38	9271.56
929.55	9365.69
929.72	9277.87
929.90	9266.98
930.07	9255.51
930.24	9213.89
930.41	9187.27
930.58	9172.20
930.75	9180.55
930.93	9110.18
931.10	9128.53
931.27	9031.95
931.44	9062.84
931.61	9010.00
931.78	9041.29
931.95	9003.61
932.13	8936.76
932.30	8988.45
932.47	8851.08
932.64	8905.80
932.81	8898.75
932.98	8863.12
933.15	8838.38
933.33	8761.87
933.50	8850.91
933.67	8762.68
933.84	8785.54
934.01	8777.68
934.18	8762.28
934.35	8736.88
934.52	8723.45
934.70	8724.76
934.87	8690.35
935.04	8623.42
935.21	8609.82
935.38	8587.62
935.55	8582.63
935.72	8624.16
935.89	8524.14
936.06	8549.12
936.24	8439.60
936.41	8542.49
936.58	8383.97
936.75	8422.48
936.92	8394.46
937.09	8405.60
937.26	8310.90
937.43	8315.74
937.60	8356.78
937.77	8305.09
937.94	8263.39
938.12	8279.20
938.29	8207.93
938.46	8229.72
938.63	8131.75
938.80	8197.69
938.97	8124.29
939.14	8120.11
939.31	8080.30
939.48	8080.55
939.65	8000.76
939.82	7992.57
939.99	7991.09
940.16	7973.97
940.33	7957.10
940.50	7914.42
940.67	7903.28
940.85	7912.53
941.02	7873.70
941.19	7861.82
941.36	7843.06
941.53	7809.89
941.70	7812.35
941.87	7761.39
942.04	7742.63
942.21	7710.27
942.38	7705.77
942.55	7675.87
942.72	7668.99
942.89	7653.18
943.06	7606.24
943.23	7586.00
943.40	7578.71
943.57	7593.95
943.74	7553.89
943.91	7548.89
944.08	7538.74
944.25	7571.42
944.42	7488.44
944.59	7481.80
944.76	7500.23
944.93	7482.79
945.10	7456.90
945.27	7439.94
945.44	7377.27
945.61	7414.22
945.78	7332.96
945.95	7370.07
946.12	7296.42
946.29	7344.92
946.46	7291.92
946.63	7248.66
946.80	7234.24
946.97	7233.84
947.14	7188.62
947.31	7192.47
947.48	7157.08
947.65	7161.99
947.82	7166.09
947.99	7183.13
948.16	7089.90
948.33	7164.53
948.50	7093.26
948.67	7078.35
948.84	7065.66
949.01	7024.53
949.18	7025.52
949.35	7058.20
949.52	6978.99
949.68	6954.57
949.85	6945.89
950.02	6929.51
950.19	6898.71
950.36	6889.45
950.53	6865.86
950.70	6848.98
950.87	6813.10
951.04	6875.28
951.21	6815.39
951.38	6758.05
951.55	6773.53
951.72	6794.01
951.89	6743.55
952.06	6788.03
952.23	6791.31
952.39	6718.24
952.56	6702.35
952.73	6729.54
952.90	6671.71
953.07	6717.75
953.24	6618.38
953.41	6639.35
953.58	6605.85
953.75	6640.50
953.92	6579.22
954.09	6569.31
954.25	6534.41
954.42	6540.80
954.59	6502.38
954.76	6479.69
954.93	6475.19
955.10	6499.11
955.27	6481.74
955.44	6467.24
955.61	6436.93
955.77	6470.84
955.94	6431.85
956.11	6429.88
956.28	6430.95
956.45	6420.46
956.62	6409.65
956.79	6418.01
956.96	6372.87
957.12	6399.41
957.29	6373.77
957.46	6395.89
957.63	6336.25
957.80	6308.56
957.97	6302.75
958.14	6352.23
958.30	6265.23
958.47	6292.67
958.64	6233.61
958.81	6283.17
958.98	6220.66
959.15	6231.15
959.32	6221.48
959.48	6206.57
959.65	6149.31
959.82	6157.50
959.99	6120.40
960.16	6141.20
960.33	6114.50
960.49	6097.87
960.66	6079.11
960.83	6098.28
961.00	6071.65
961.17	6060.43
961.33	6054.04
961.50	6019.06
961.67	6003.58
961.84	6036.84
962.01	5983.92
962.18	6042.57
962.34	5980.07
962.51	5981.63
962.68	5944.76
962.85	6018.57
963.02	5947.71
963.18	5965.98
963.35	5900.03
963.52	5915.43
963.69	5934.85
963.86	5905.28
964.02	5868.74
964.19	5879.39
964.36	5853.09
964.53	5852.11
964.69	5788.05
964.86	5839.99
965.03	5808.86
965.20	5827.54
965.37	5753.32
965.53	5747.91
965.70	5754.55
965.87	5762.16
966.04	5738.98
966.20	5700.23
966.37	5720.06
966.54	5689.09
966.71	5706.62
966.87	5673.28
967.04	5687.86
967.21	5680.41
967.38	5635.68
967.54	5662.39
967.71	5654.85
967.88	5643.30
968.05	5627.24
968.21	5607.75
968.38	5572.52
968.55	5579.16
968.72	5535.25
968.88	5520.18
969.05	5538.69
969.22	5527.22
969.39	5511.74
969.55	5497.40
969.72	5491.91
969.89	5508.63
970.05	5515.92
970.22	5524.52
970.39	5498.22
970.56	5514.85
970.72	5462.10
970.89	5495.93
971.06	5466.03
971.22	5422.12
971.39	5432.20
971.56	5441.78
971.73	5393.94
971.89	5424.58
972.06	5381.57
972.23	5404.92
972.39	5352.49
972.56	5398.86
972.73	5322.75
972.89	5358.47
973.06	5366.25
973.23	5340.94
973.39	5301.04
973.56	5324.72
973.73	5324.72
973.89	5324.72
974.06	5293.18
974.23	5298.42
974.39	5262.13
974.56	5271.96
974.73	5254.92
974.89	5221.17
975.06	5217.08
975.23	5241.16
975.39	5193.48
975.56	5224.04
975.73	5188.65
975.89	5201.35
976.06	5185.78
976.23	5163.75
976.39	5150.97
976.56	5162.93
976.73	5163.01
976.89	5166.12
977.06	5118.53
977.23	5118.69
977.39	5115.33
977.56	5091.82
977.72	5067.74
977.89	5078.06
978.06	5058.97
978.22	5064.14
978.39	5040.71
978.56	5046.69
978.72	5025.06
978.89	5023.59
979.05	5018.51
979.22	5026.29
979.39	5004.33
979.55	5009.66
979.72	5004.99
979.88	5009.82
980.05	4964.19
980.22	4998.11
980.38	5005.81
980.55	4971.73
980.71	4969.19
980.88	4960.92
981.05	4949.69
981.21	4947.07
981.38	4944.62
981.54	4917.50
981.71	4927.82
981.88	4929.05
982.04	4927.09
982.21	4888.75
982.37	4901.44
982.54	4903.25
982.70	4864.99
982.87	4879.00
983.04	4825.75
983.20	4899.56
983.37	4834.35
983.53	4864.74
983.70	4859.99
983.86	4839.60
984.03	4824.28
984.20	4818.30
984.36	4831.32
984.53	4826.49
984.69	4791.35
984.86	4786.35
985.02	4784.63
985.19	4798.23
985.35	4753.66
985.52	4772.09
985.68	4746.45
985.85	4770.37
986.02	4753.83
986.18	4737.44
986.35	4768.98
986.51	4746.54
986.68	4747.19
986.84	4730.32
987.01	4708.28
987.17	4729.01
987.34	4705.33
987.50	4680.84
987.67	4673.96
987.83	4700.91
988.00	4671.09
988.16	4662.90
988.33	4654.87
988.49	4669.61
988.66	4623.25
988.82	4642.99
988.99	4626.85
989.15	4617.35
989.32	4611.86
989.48	4588.43
989.65	4552.80
989.81	4583.68
989.98	4561.81
990.14	4556.08
990.31	4552.96
990.47	4551.90
990.64	4541.33
990.80	4537.15
990.97	4514.62
991.13	4553.62
991.30	4528.63
991.46	4515.53
991.63	4501.35
991.79	4506.76
991.95	4497.18
992.12	4510.77
992.28	4474.89
992.45	4499.88
992.61	4465.72
992.78	4474.73
992.94	4450.81
993.11	4482.35
993.27	4482.76
993.44	4468.18
993.60	4445.16
993.76	4455.89
993.93	4434.67
994.09	4433.03
994.26	4439.18
994.42	4422.38
994.59	4418.12
994.75	4442.95
994.91	4405.59
995.08	4391.42
995.24	4365.45
995.41	4384.86
995.57	4352.02
995.74	4349.80
995.90	4365.53
996.06	4380.61
996.23	4362.01
996.39	4336.45
996.56	4334.08
996.72	4348.00
996.88	4338.42
997.05	4340.22
997.21	4309.58
997.38	4334.81
997.54	4312.12
997.70	4299.26
997.87	4319.41
998.03	4287.79
998.20	4261.25
998.36	4267.31
998.52	4252.81
998.69	4277.14
998.85	4238.64
999.02	4281.81
999.18	4224.30
999.34	4269.85
999.51	4262.07
999.67	4250.68
999.83	4249.70
1000.00	4231.02
1000.16	4219.14
1000.33	4250.03
1000.49	4211.77
1000.65	4229.71
1000.82	4225.12
1000.98	4207.67
1001.14	4194.49
1001.31	4205.54
1001.47	4206.53
1001.63	4189.90
1001.80	4180.97
1001.96	4162.29
1002.12	4144.84
1002.29	4193.58
1002.45	4153.94
1002.61	4152.30
1002.78	4137.47
1002.94	4135.83
1003.10	4137.80
1003.27	4149.02
1003.43	4102.49
1003.59	4138.94
1003.76	4124.85
1003.92	4110.85
1004.08	4084.55
1004.25	4133.37
1004.41	4095.12
1004.57	4086.27
1004.74	4099.87
1004.90	4119.45
1005.06	4085.78
1005.23	4086.27
1005.39	4081.68
1005.55	4086.60
1005.71	4083.65
1005.88	4076.60
1006.04	4084.63
1006.20	4073.57
1006.37	4041.46
1006.53	4058.17
1006.69	4050.96
1006.85	4071.94
1007.02	4017.54
1007.18	4060.88
1007.34	4026.88
1007.51	4048.10
1007.67	3999.27
1007.83	4016.48
1007.99	4003.21
1008.16	4003.12
1008.32	3999.19
1008.48	4007.06
1008.64	3996.32
1008.81	4023.69
1008.97	3961.02
1009.13	4004.19
1009.29	3962.74
1009.46	4004.02
1009.62	3993.54
1009.78	3968.39
1009.95	3979.04
1010.11	3983.30
1010.27	3927.02
1010.43	3947.66
1010.59	3954.87
1010.76	3932.02
1010.92	3932.10
1011.08	3946.27
1011.24	3899.99
1011.41	3944.63
1011.57	3921.45
1011.73	3914.82
1011.89	3898.43
1012.06	3932.84
1012.22	3898.92
1012.38	3903.84
1012.54	3890.98
1012.70	3881.31
1012.87	3858.54
1013.03	3907.44
1013.19	3880.66
1013.35	3875.99
1013.51	3863.04
1013.68	3909.57
1013.84	3845.51
1014.00	3878.12
1014.16	3844.20
1014.32	3849.94
1014.49	3840.68
1014.65	3866.81
1014.81	3832.24
1014.97	3853.05
1015.13	3819.30
1015.30	3855.01
1015.46	3836.42
1015.62	3846.00
1015.78	3812.33
1015.94	3806.76
1016.10	3808.48
1016.27	3806.52
1016.43	3814.55
1016.59	3811.27
1016.75	3771.54
1016.91	3799.80
1017.07	3775.96
1017.24	3796.85
1017.40	3769.25
1017.56	3773.34
1017.72	3746.31
1017.88	3774.82
1018.04	3762.12
1018.21	3757.12
1018.37	3754.01
1018.53	3764.58
1018.69	3755.97
1018.85	3750.73
1019.01	3736.23
1019.17	3748.77
1019.34	3730.83
1019.50	3736.15
1019.66	3724.52
1019.82	3724.11
1019.98	3721.32
1020.14	3745.98
1020.30	3738.53
1020.46	3719.77
1020.63	3697.73
1020.79	3706.09
1020.95	3722.47
1021.11	3722.55
1021.27	3691.67
1021.43	3699.29
1021.59	3702.15
1021.75	3698.14
1021.91	3671.60
1022.07	3672.25
1022.24	3672.25
1022.40	3677.01
1022.56	3671.60
1022.72	3687.00
1022.88	3657.92
1023.04	3660.21
1023.20	3663.57
1023.36	3664.55
1023.52	3662.18
1023.68	3665.37
1023.84	3638.67
1024.01	3637.27
1024.17	3632.85
1024.33	3655.54
1024.49	3619.58
1024.65	3646.12
1024.81	3624.25
1024.97	3618.76
1025.13	3630.88
1025.29	3613.68
1025.45	3600.66
1025.61	3646.61
1025.77	3592.96
1025.93	3593.28
1026.09	3579.52
1026.25	3622.61
1026.41	3601.56
1026.57	3607.46
1026.73	3607.05
1026.90	3600.41
1027.06	3602.13
1027.22	3612.45
1027.38	3604.10
1027.54	3608.68
1027.70	3600.90
1027.86	3601.31
1028.02	3582.47
1028.18	3606.72
1028.34	3574.44
1028.50	3592.79
1028.66	3564.61
1028.82	3586.32
1028.98	3576.82
1029.14	3555.60
1029.30	3565.51
1029.46	3588.04
1029.62	3563.88
1029.78	3550.69
1029.94	3564.86
1030.10	3555.52
1030.26	3526.11
1030.42	3552.82
1030.58	3573.87
1030.74	3556.09
1030.90	3516.53
1031.06	3530.04
1031.22	3525.54
1031.38	3526.27
1031.54	3517.43
1031.70	3521.93
1031.86	3530.21
1032.02	3520.87
1032.18	3528.90
1032.34	3506.04
1032.50	3504.40
1032.66	3517.92
1032.82	3493.02
1032.98	3508.01
1033.14	3500.31
1033.30	3510.63
1033.45	3490.48
1033.61	3520.70
1033.77	3484.17
1033.93	3492.11
1034.09	3493.02
1034.25	3498.59
1034.41	3482.12
1034.57	3481.14
1034.73	3476.39
1034.89	3495.39
1035.05	3479.25
1035.21	3494.49
1035.37	3476.30
1035.53	3477.45
1035.69	3469.50
1035.85	3484.58
1036.01	3450.50
1036.16	3484.50
1036.32	3460.17
1036.48	3461.39
1036.64	3435.10
1036.80	3478.52
1036.96	3457.14
1037.12	3453.45
1037.28	3453.94
1037.44	3451.40
1037.60	3446.98
1037.76	3436.49
1037.91	3458.45
1038.07	3454.43
1038.23	3455.25
1038.39	3445.50
1038.55	3445.58
1038.71	3458.53
1038.87	3426.74
1039.03	3458.77
1039.19	3426.58
1039.35	3447.22
1039.50	3422.48
1039.66	3442.14
1039.82	3421.25
1039.98	3434.44
1040.14	3414.46
1040.30	3419.29
1040.46	3414.05
1040.62	3414.37
1040.77	3422.73
1040.93	3424.37
1041.09	3421.01
1041.25	3393.98
1041.41	3424.70
1041.57	3406.76
1041.73	3406.76
1041.88	3406.76

