SpectraSuite Data File
++++++++++++++++++++++++++++++++++++
Date: Tue Sep 20 12:06:57 EDT 2022
User: Laboratoire
Dark Spectrum Present: No
Reference Spectrum Present: No
Number of Sampled Component Spectra: 1
Spectrometers: FLMT00174
Integration Time (usec): 15000 (FLMT00174)
Spectra Averaged: 25 (FLMT00174)
Boxcar Smoothing: 0 (FLMT00174)
Correct for Electrical Dark: No (FLMT00174)
Strobe/Lamp Enabled: No (FLMT00174)
Correct for Detector Non-linearity: No (FLMT00174)
Correct for Stray Light: No (FLMT00174)
Number of Pixels in Processed Spectrum: 3648
>>>>>Begin Processed Spectral Data<<<<<
345.74	3157.07
345.96	3157.07
346.18	3157.07
346.39	3171.24
346.61	3215.97
346.83	3226.12
347.05	3200.57
347.27	3215.23
347.49	3221.78
347.71	3236.69
347.93	3217.36
348.15	3239.80
348.36	3217.85
348.58	3228.17
348.80	3203.92
349.02	3230.47
349.24	3241.93
349.46	3301.65
349.68	3328.03
349.90	3342.94
350.11	3309.52
350.33	3332.86
350.55	3304.19
350.77	3333.68
350.99	3301.82
351.21	3336.47
351.43	3315.58
351.65	3329.92
351.86	3300.83
352.08	3315.50
352.30	3298.13
352.52	3328.93
352.74	3315.25
352.96	3320.49
353.18	3343.43
353.39	3321.97
353.61	3311.48
353.83	3335.90
354.05	3359.16
354.27	3332.86
354.49	3327.95
354.70	3320.74
354.92	3316.56
355.14	3303.37
355.36	3309.93
355.58	3331.72
355.80	3314.35
356.02	3327.70
356.23	3314.02
356.45	3326.64
356.67	3312.38
356.89	3340.40
357.11	3332.13
357.33	3335.81
357.54	3308.12
357.76	3299.61
357.98	3311.57
358.20	3325.57
358.42	3328.03
358.63	3328.69
358.85	3323.12
359.07	3334.67
359.29	3320.41
359.51	3300.75
359.73	3318.28
359.94	3321.15
360.16	3315.09
360.38	3309.27
360.60	3318.86
360.82	3331.06
361.03	3345.07
361.25	3325.41
361.47	3328.44
361.69	3324.75
361.91	3319.92
362.12	3336.55
362.34	3336.06
362.56	3316.15
362.78	3314.60
363.00	3348.59
363.21	3329.75
363.43	3331.06
363.65	3300.51
363.87	3337.45
364.09	3329.42
364.30	3321.72
364.52	3309.52
364.74	3334.67
364.96	3319.27
365.17	3327.70
365.39	3328.69
365.61	3319.92
365.83	3314.02
366.05	3298.87
366.26	3315.91
366.48	3325.41
366.70	3329.26
366.92	3350.07
367.13	3345.40
367.35	3338.35
367.57	3321.31
367.79	3349.90
368.01	3327.38
368.22	3340.40
368.44	3324.84
368.66	3321.81
368.88	3332.13
369.09	3309.60
369.31	3344.01
369.53	3345.73
369.75	3338.84
369.96	3338.68
370.18	3310.25
370.40	3350.31
370.62	3333.36
370.83	3313.78
371.05	3334.18
371.27	3350.72
371.49	3303.21
371.70	3335.98
371.92	3323.12
372.14	3333.36
372.36	3331.88
372.57	3341.71
372.79	3332.29
373.01	3349.41
373.22	3337.70
373.44	3348.35
373.66	3351.05
373.88	3353.26
374.09	3343.02
374.31	3338.19
374.53	3332.54
374.75	3368.09
374.96	3347.45
375.18	3372.43
375.40	3351.38
375.61	3364.32
375.83	3334.34
376.05	3351.79
376.27	3363.50
376.48	3336.39
376.70	3348.92
376.92	3340.97
377.13	3348.51
377.35	3345.15
377.57	3348.92
377.79	3334.91
378.00	3341.88
378.22	3362.93
378.44	3351.13
378.65	3372.10
378.87	3361.37
379.09	3380.87
379.30	3359.57
379.52	3364.08
379.74	3350.72
379.96	3343.19
380.17	3353.75
380.39	3361.45
380.61	3348.59
380.82	3361.21
381.04	3345.73
381.26	3367.60
381.47	3353.67
381.69	3379.89
381.91	3362.27
382.12	3388.00
382.34	3375.30
382.56	3356.21
382.77	3380.62
382.99	3361.37
383.21	3371.12
383.42	3374.64
383.64	3367.60
383.86	3392.50
384.07	3385.46
384.29	3380.05
384.51	3352.28
384.72	3383.57
384.94	3382.10
385.16	3380.87
385.37	3384.88
385.59	3378.74
385.81	3393.40
386.02	3390.62
386.24	3400.94
386.46	3413.80
386.67	3411.01
386.89	3412.82
387.11	3438.46
387.32	3424.86
387.54	3408.64
387.76	3423.22
387.97	3436.00
388.19	3434.94
388.40	3428.96
388.62	3430.02
388.84	3447.14
389.05	3448.94
389.27	3442.64
389.49	3456.07
389.70	3435.75
389.92	3433.95
390.14	3460.58
390.35	3466.88
390.57	3481.14
390.78	3459.26
391.00	3456.07
391.22	3470.32
391.43	3460.82
391.65	3501.78
391.86	3484.25
392.08	3511.45
392.30	3478.35
392.51	3483.02
392.73	3519.88
392.95	3493.26
393.16	3487.45
393.38	3520.13
393.59	3503.42
393.81	3522.18
394.03	3502.52
394.24	3514.23
394.46	3501.94
394.67	3510.87
394.89	3494.08
395.11	3526.11
395.32	3538.40
395.54	3543.64
395.75	3522.34
395.97	3513.33
396.19	3499.00
396.40	3532.66
396.62	3531.52
396.83	3530.21
397.05	3518.90
397.26	3524.72
397.48	3536.19
397.70	3541.02
397.91	3556.09
398.13	3512.10
398.34	3531.68
398.56	3563.14
398.78	3551.92
398.99	3578.70
399.21	3536.84
399.42	3584.11
399.64	3547.08
399.85	3570.92
400.07	3549.70
400.29	3575.34
400.50	3570.84
400.72	3580.50
400.93	3558.14
401.15	3572.48
401.36	3577.23
401.58	3611.72
401.79	3591.97
402.01	3596.81
402.23	3624.66
402.44	3615.57
402.66	3624.66
402.87	3645.55
403.09	3638.18
403.30	3644.57
403.52	3610.65
403.73	3633.26
403.95	3647.43
404.16	3668.73
404.38	3652.27
404.60	3666.19
404.81	3680.45
405.03	3700.19
405.24	3703.63
405.46	3710.76
405.67	3725.17
405.89	3725.50
406.10	3730.42
406.32	3749.91
406.53	3766.46
406.75	3781.78
406.96	3785.47
407.18	3786.12
407.39	3781.53
407.61	3798.65
407.82	3821.84
408.04	3847.81
408.25	3845.92
408.47	3850.67
408.68	3878.28
408.90	3855.34
409.12	3921.29
409.33	3914.98
409.55	3914.82
409.76	3930.87
409.98	3932.02
410.19	3951.60
410.41	3976.91
410.62	3989.53
410.84	3979.45
411.05	4029.42
411.27	4024.18
411.48	4042.44
411.70	4039.09
411.91	4052.19
412.12	4087.66
412.34	4059.65
412.55	4090.37
412.77	4067.51
412.98	4126.82
413.20	4106.75
413.41	4103.31
413.63	4134.36
413.84	4121.99
414.06	4142.30
414.27	4143.78
414.49	4143.86
414.70	4161.47
414.92	4169.91
415.13	4153.77
415.35	4169.34
415.56	4182.12
415.78	4175.97
415.99	4194.65
416.21	4202.19
416.42	4202.10
416.63	4206.69
416.85	4214.23
417.06	4182.53
417.28	4172.45
417.49	4215.05
417.71	4199.81
417.92	4191.95
418.14	4196.12
418.35	4221.27
418.57	4212.10
418.78	4231.43
418.99	4199.73
419.21	4226.60
419.42	4244.70
419.64	4210.05
419.85	4223.81
420.07	4259.78
420.28	4245.60
420.50	4223.81
420.71	4227.25
420.92	4229.55
421.14	4253.79
421.35	4229.22
421.57	4242.65
421.78	4256.09
422.00	4266.33
422.21	4271.57
422.42	4276.73
422.64	4266.66
422.85	4284.76
423.07	4315.64
423.28	4298.44
423.50	4313.60
423.71	4318.67
423.92	4354.88
424.14	4316.14
424.35	4340.55
424.57	4379.21
424.78	4391.17
424.99	4390.35
425.21	4396.58
425.42	4389.12
425.64	4427.71
425.85	4434.10
426.06	4422.79
426.28	4439.01
426.49	4487.67
426.71	4491.52
426.92	4486.12
427.13	4513.89
427.35	4582.04
427.56	4571.80
427.78	4563.61
427.99	4602.85
428.20	4654.46
428.42	4654.87
428.63	4677.48
428.84	4621.12
429.06	4676.33
429.27	4698.78
429.49	4739.49
429.70	4793.07
429.91	4759.81
430.13	4816.90
430.34	4827.31
430.56	4843.36
430.77	4879.98
430.98	4883.34
431.20	4943.80
431.41	4967.31
431.62	5015.97
431.84	5011.79
432.05	5055.12
432.26	5090.59
432.48	5066.92
432.69	5171.04
432.91	5151.62
433.12	5224.78
433.33	5211.92
433.55	5320.70
433.76	5331.93
433.97	5341.10
434.19	5365.76
434.40	5450.63
434.61	5470.94
434.83	5501.75
435.04	5482.82
435.25	5577.68
435.47	5616.68
435.68	5577.68
435.89	5708.59
436.11	5711.54
436.32	5755.37
436.53	5799.36
436.75	5758.89
436.96	5823.85
437.17	5801.57
437.39	5856.45
437.60	5926.90
437.81	5955.74
438.03	5980.64
438.24	6037.25
438.45	6136.53
438.67	6076.00
438.88	6170.61
439.09	6203.79
439.31	6201.50
439.52	6254.50
439.73	6223.94
439.94	6210.51
440.16	6281.78
440.37	6261.54
440.58	6366.89
440.80	6360.99
441.01	6315.36
441.22	6485.84
441.44	6413.91
441.65	6408.01
441.86	6436.77
442.08	6456.75
442.29	6463.55
442.50	6486.98
442.71	6467.16
442.93	6531.96
443.14	6479.86
443.35	6542.52
443.57	6465.19
443.78	6535.72
443.99	6549.90
444.20	6484.20
444.42	6552.19
444.63	6505.99
444.84	6570.62
445.06	6619.61
445.27	6539.82
445.48	6523.27
445.69	6553.25
445.91	6544.33
446.12	6491.73
446.33	6521.47
446.54	6607.16
446.76	6539.49
446.97	6503.20
447.18	6541.62
447.39	6551.78
447.61	6564.72
447.82	6581.43
448.03	6518.44
448.25	6609.61
448.46	6621.66
448.67	6622.48
448.88	6535.64
449.10	6628.95
449.31	6637.22
449.52	6597.82
449.73	6595.69
449.95	6677.61
450.16	6587.09
450.37	6687.52
450.58	6751.83
450.79	6595.20
451.01	6652.79
451.22	6610.43
451.43	6646.64
451.64	6727.25
451.86	6716.19
452.07	6697.19
452.28	6737.90
452.49	6824.00
452.71	6707.92
452.92	6732.90
453.13	6775.42
453.34	6776.65
453.55	6877.82
453.77	6882.08
453.98	6884.29
454.19	6831.78
454.40	6890.84
454.62	6965.14
454.83	6880.44
455.04	6974.32
455.25	6918.53
455.46	7134.06
455.68	7029.94
455.89	7040.92
456.10	7067.13
456.31	7131.76
456.52	7164.37
456.74	7172.40
456.95	7311.08
457.16	7293.88
457.37	7374.41
457.58	7358.52
457.80	7356.06
458.01	7350.49
458.22	7649.16
458.43	7530.63
458.64	7566.02
458.86	7481.97
459.07	7617.71
459.28	7655.88
459.49	7762.29
459.70	7931.62
459.91	7868.21
460.13	7888.94
460.34	7969.79
460.55	7941.70
460.76	8092.84
460.97	8121.18
461.19	8132.81
461.40	8412.32
461.61	8329.91
461.82	8395.44
462.03	8524.47
462.24	8496.37
462.46	8516.03
462.67	8626.70
462.88	8741.55
463.09	8753.92
463.30	8917.59
463.51	8877.62
463.72	9077.01
463.94	9178.26
464.15	9182.11
464.36	9170.15
464.57	9440.64
464.78	9498.64
464.99	9529.12
465.20	9557.38
465.42	9776.92
465.63	9824.84
465.84	9854.74
466.05	10058.48
466.26	10145.80
466.47	10296.70
466.68	10214.37
466.90	10461.84
467.11	10491.17
467.32	10634.04
467.53	10815.32
467.74	10708.09
467.95	10863.16
468.16	11099.74
468.37	11243.35
468.59	11272.35
468.80	11508.36
469.01	11401.53
469.22	11691.03
469.43	11968.82
469.64	11888.87
469.85	12041.65
470.06	12167.80
470.28	12338.27
470.49	12139.54
470.70	12462.38
470.91	12741.15
471.12	12638.34
471.33	12943.41
471.54	12892.54
471.75	12979.53
471.96	13341.37
472.17	13317.78
472.39	13672.08
472.60	13452.45
472.81	13797.90
473.02	13733.02
473.23	14027.85
473.44	14093.63
473.65	14059.63
473.86	14256.40
474.07	14322.92
474.28	14375.02
474.49	14816.81
474.71	14723.34
474.92	14931.49
475.13	14813.12
475.34	14952.79
475.55	15001.45
475.76	15130.80
475.97	15463.15
476.18	15456.27
476.39	15615.60
476.60	15725.78
476.81	15803.36
477.02	15953.02
477.23	15924.35
477.44	15887.90
477.65	16120.63
477.87	16249.24
478.08	16322.64
478.29	16268.49
478.50	16677.84
478.71	16478.53
478.92	16583.30
479.13	16616.81
479.34	16669.97
479.55	16819.15
479.76	16723.30
479.97	16797.85
480.18	17249.30
480.39	16857.08
480.60	17219.81
480.81	17177.05
481.02	17195.07
481.23	17273.55
481.44	17432.39
481.65	17492.85
481.86	17679.87
482.07	17305.34
482.28	18019.83
482.49	17630.88
482.71	17684.70
482.92	17831.50
483.13	17969.21
483.34	17816.75
483.55	17909.81
483.76	17842.15
483.97	18113.96
484.18	17972.07
484.39	18152.70
484.60	18017.13
484.81	18327.27
485.02	18165.24
485.23	18421.97
485.44	18412.88
485.65	18520.85
485.86	18336.53
486.07	18601.04
486.28	18525.84
486.49	18649.79
486.70	18669.37
486.91	18858.76
487.12	18754.97
487.33	18643.31
487.54	19018.83
487.75	18982.54
487.96	18993.19
488.17	18945.02
488.38	19157.76
488.59	19159.81
488.80	19245.01
489.01	19241.32
489.22	19477.49
489.43	19378.21
489.64	19296.70
489.85	19698.18
490.06	19348.80
490.26	19655.34
490.47	19551.14
490.68	19809.02
490.89	20008.25
491.10	19711.94
491.31	20004.72
491.52	20208.86
491.73	20099.09
491.94	20081.73
492.15	20329.78
492.36	20432.67
492.57	20432.91
492.78	20477.48
492.99	20650.65
493.20	20770.50
493.41	20770.17
493.62	20832.92
493.83	20886.82
494.04	20964.32
494.25	21167.97
494.46	21231.54
494.67	21204.26
494.88	21334.76
495.08	21390.54
495.29	21552.17
495.50	21810.70
495.71	21759.34
495.92	22011.49
496.13	22095.04
496.34	22030.41
496.55	22194.90
496.76	22495.87
496.97	22323.84
497.18	22698.78
497.39	22606.87
497.60	23114.60
497.81	22763.34
498.02	23156.87
498.22	22934.06
498.43	23489.38
498.64	23538.04
498.85	23603.25
499.06	23738.42
499.27	24134.49
499.48	23705.81
499.69	24123.84
499.90	24337.16
500.11	24603.31
500.32	24913.46
500.52	24668.11
500.73	25254.81
500.94	25374.58
501.15	25439.79
501.36	25559.88
501.57	25498.85
501.78	25860.85
501.99	26226.53
502.20	26152.97
502.41	26430.76
502.61	26514.64
502.82	26951.27
503.03	26793.90
503.24	27368.32
503.45	27198.91
503.66	27700.83
503.87	27665.52
504.08	28156.79
504.28	28089.20
504.49	28452.18
504.70	28657.80
504.91	28931.49
505.12	28867.68
505.33	29512.46
505.54	29569.31
505.75	29720.12
505.95	30017.65
506.16	30124.23
506.37	30125.29
506.58	30729.85
506.79	30446.99
507.00	31114.95
507.21	30998.79
507.41	31183.44
507.62	31595.82
507.83	32097.81
508.04	31916.45
508.25	32517.07
508.46	32403.45
508.67	33067.40
508.87	32930.60
509.08	33502.07
509.29	33536.55
509.50	33837.20
509.71	34008.41
509.92	34359.75
510.12	34260.88
510.33	34591.83
510.54	34659.09
510.75	35015.84
510.96	35348.27
511.17	35754.09
511.37	35786.86
511.58	36138.54
511.79	36003.54
512.00	36107.33
512.21	36850.33
512.42	36877.53
512.62	37140.32
512.83	37515.02
513.04	37464.31
513.25	37945.42
513.46	37216.02
513.66	38449.79
513.87	38161.44
514.08	38680.48
514.29	38505.34
514.50	38601.67
514.71	39179.94
514.91	39022.16
515.12	39103.75
515.33	39519.08
515.54	39388.17
515.75	40002.81
515.95	39794.16
516.16	39861.25
516.37	40423.71
516.58	40528.15
516.78	40357.03
516.99	40696.83
517.20	40798.98
517.41	40808.81
517.62	41084.96
517.82	40931.36
518.03	41612.43
518.24	41996.30
518.45	41265.67
518.66	41693.94
518.86	41425.17
519.07	41927.65
519.28	41201.94
519.49	41944.28
519.69	42011.46
519.90	42127.54
520.11	42231.57
520.32	42068.47
520.52	42460.13
520.73	42078.96
520.94	42516.49
521.15	42488.47
521.36	41889.64
521.56	42698.84
521.77	41930.60
521.98	42544.26
522.19	41961.41
522.39	42283.84
522.60	42100.18
522.81	42257.38
523.02	42033.41
523.22	42278.51
523.43	42391.31
523.64	42161.53
523.84	42178.82
524.05	42503.13
524.26	42306.86
524.47	41923.15
524.67	41912.50
524.88	42102.63
525.09	42301.53
525.30	41951.49
525.50	41767.01
525.71	41847.54
525.92	41799.78
526.13	41900.46
526.33	41605.39
526.54	41291.23
526.75	41525.93
526.95	41762.01
527.16	40884.75
527.37	41410.17
527.58	41439.66
527.78	41180.64
527.99	41402.47
528.20	41455.47
528.40	41030.89
528.61	40719.27
528.82	41102.57
529.03	40810.69
529.23	40651.52
529.44	40888.02
529.65	40689.29
529.85	40630.72
530.06	40461.06
530.27	40402.98
530.47	39906.23
530.68	40603.27
530.89	39709.46
531.09	40328.11
531.30	40072.19
531.51	39659.49
531.72	40041.23
531.92	39896.32
532.13	40130.93
532.34	39795.31
532.54	39679.31
532.75	39725.11
532.96	39440.27
533.16	39622.79
533.37	39673.74
533.58	39332.63
533.78	39518.67
533.99	39532.43
534.20	39088.84
534.40	39284.79
534.61	39330.17
534.82	39285.69
535.02	39307.57
535.23	39099.33
535.44	39270.87
535.64	39085.73
535.85	39114.97
536.06	39040.18
536.26	38886.50
536.47	38965.23
536.68	39302.57
536.88	38665.65
537.09	39138.57
537.29	38601.59
537.50	39204.35
537.71	38770.34
537.91	38856.60
538.12	38954.99
538.33	38670.97
538.53	38907.06
538.74	38926.32
538.95	38824.33
539.15	38607.24
539.36	38879.05
539.56	39051.49
539.77	38616.17
539.98	38827.77
540.18	38951.38
540.39	38676.05
540.60	38899.45
540.80	39055.91
541.01	38922.71
541.21	38927.87
541.42	39012.66
541.63	38939.91
541.83	39123.66
542.04	39143.24
542.25	39046.98
542.45	39309.12
542.66	39223.35
542.86	39474.43
543.07	38627.31
543.28	39413.73
543.48	39268.90
543.69	39489.59
543.89	39333.37
544.10	39848.64
544.31	39737.88
544.51	39560.86
544.72	39727.48
544.92	39702.17
545.13	40094.89
545.33	39996.99
545.54	39834.55
545.75	40192.53
545.95	40016.82
546.16	40040.57
546.36	40534.22
546.57	39946.86
546.78	39429.21
546.98	40027.14
547.19	39378.51
547.39	40297.80
547.60	40485.80
547.80	41141.89
548.01	41262.23
548.22	40969.04
548.42	41235.03
548.63	41447.36
548.83	41381.99
549.04	41721.96
549.24	41361.84
549.45	41717.45
549.65	42011.13
549.86	41564.26
550.07	41898.98
550.27	42326.93
550.48	42498.14
550.68	42374.52
550.89	42433.67
551.09	42749.79
551.30	42729.72
551.50	43074.84
551.71	43008.49
551.91	43044.29
552.12	43274.97
552.33	43679.24
552.53	43312.82
552.74	44077.45
552.94	44242.92
553.15	44172.23
553.35	44460.66
553.56	44220.07
553.76	44791.37
553.97	44521.45
554.17	44881.32
554.38	45630.46
554.58	45114.95
554.79	45888.67
554.99	45481.13
555.20	45769.56
555.40	46418.36
555.61	46137.13
555.81	46068.81
556.02	47042.09
556.22	46896.03
556.43	46784.78
556.63	47049.62
556.84	47162.59
557.04	47920.01
557.25	47466.35
557.45	48021.67
557.66	48135.70
557.86	48103.51
558.07	48909.02
558.27	48483.61
558.48	48658.26
558.68	48853.56
558.89	49096.94
559.09	49339.58
559.30	49307.14
559.50	49679.05
559.71	49520.29
559.91	50412.96
560.12	50260.59
560.32	50498.24
560.53	50895.96
560.73	50765.87
560.94	51315.71
561.14	51054.88
561.35	51811.32
561.55	51701.22
561.76	52070.42
561.96	51527.63
562.17	52226.40
562.37	52698.50
562.57	52469.29
562.78	52654.34
562.98	53113.17
563.19	53206.97
563.39	53601.98
563.60	53625.90
563.80	53260.70
564.01	54148.13
564.21	53975.45
564.42	54045.16
564.62	54356.78
564.82	54793.16
565.03	54463.35
565.23	54674.87
565.44	55130.25
565.64	55084.46
565.85	55546.65
566.05	55419.84
566.25	55936.33
566.46	55686.15
566.66	56026.61
566.87	56231.41
567.07	56279.90
567.28	56502.31
567.48	56969.74
567.68	56288.42
567.89	57318.71
568.09	56958.84
568.30	57070.99
568.50	57638.44
568.71	57439.54
568.91	57802.85
569.11	57436.59
569.32	57591.17
569.52	57815.22
569.73	57277.84
569.93	58022.97
570.13	58004.21
570.34	57898.53
570.54	58619.50
570.75	58432.89
570.95	58406.35
571.15	58225.47
571.36	58861.24
571.56	58370.22
571.77	58469.59
571.97	58055.41
572.17	58926.45
572.38	58824.38
572.58	59140.83
572.79	58888.69
572.99	58923.58
573.19	59037.37
573.40	58864.36
573.60	59054.90
573.81	58927.35
574.01	59279.77
574.21	59178.60
574.42	59314.66
574.62	59044.66
574.82	59552.88
575.03	59221.85
575.23	59648.40
575.43	59247.33
575.64	59190.23
575.84	59653.48
576.05	58968.47
576.25	59110.11
576.45	58887.70
576.66	59409.94
576.86	58870.66
577.06	59298.85
577.27	59000.91
577.47	59090.53
577.67	58952.75
577.88	58217.12
578.08	58879.67
578.28	58987.48
578.49	58683.73
578.69	58822.58
578.89	58360.23
579.10	58566.01
579.30	59206.04
579.50	58530.54
579.71	58002.08
579.91	58462.63
580.11	58048.61
580.32	57888.87
580.52	57822.02
580.72	58313.53
580.93	57456.83
581.13	57517.69
581.33	57942.69
581.54	57392.69
581.74	57509.50
581.94	57493.36
582.15	57744.12
582.35	57230.08
582.55	57267.92
582.76	56641.08
582.96	57097.37
583.16	56497.81
583.37	56676.88
583.57	56301.04
583.77	56809.42
583.97	55534.28
584.18	56654.52
584.38	56280.39
584.58	55790.03
584.79	56181.35
584.99	55791.09
585.19	55543.70
585.40	55265.01
585.60	55433.35
585.80	54893.51
586.00	55141.39
586.21	54971.74
586.41	54932.17
586.61	55141.80
586.82	54766.37
587.02	54413.71
587.22	54618.75
587.42	53817.18
587.63	54399.37
587.83	53593.62
588.03	53962.91
588.23	53475.90
588.44	53615.82
588.64	53105.88
588.84	53217.37
589.05	53336.97
589.25	53156.26
589.45	53039.36
589.65	52773.12
589.86	52948.51
590.06	52810.64
590.26	52377.78
590.46	52655.65
590.67	51855.96
590.87	52439.30
591.07	52395.64
591.27	51746.85
591.48	52112.04
591.68	51406.56
591.88	52256.71
592.08	51318.57
592.29	51544.10
592.49	51472.42
592.69	51499.29
592.89	50988.61
593.10	51080.93
593.30	50778.65
593.50	51243.13
593.70	50109.45
593.90	50809.04
594.11	50492.18
594.31	50414.11
594.51	50548.29
594.71	50418.37
594.92	50418.12
595.12	50088.40
595.32	49935.46
595.52	50104.95
595.72	49339.66
595.93	49893.35
596.13	49524.47
596.33	49179.92
596.53	49567.56
596.73	49449.02
596.94	49203.02
597.14	49434.85
597.34	49070.72
597.54	49298.95
597.74	48813.34
597.95	48781.55
598.15	48622.46
598.35	48643.60
598.55	48724.86
598.75	48415.70
598.96	48979.47
599.16	48528.26
599.36	48570.53
599.56	48415.78
599.76	48197.63
599.97	48602.80
600.17	48246.70
600.37	48379.25
600.57	47683.92
600.77	48401.04
600.97	47876.68
601.18	48314.12
601.38	47866.27
601.58	48154.13
601.78	47867.75
601.98	47680.24
602.18	47933.53
602.39	48188.54
602.59	47927.06
602.79	47713.41
602.99	47736.68
603.19	47716.03
603.39	47532.86
603.60	47469.46
603.80	47588.57
604.00	47378.94
604.20	47508.62
604.40	47626.25
604.60	47391.64
604.80	47399.09
605.01	47527.05
605.21	47228.13
605.41	47231.32
605.61	46927.57
605.81	47187.33
606.01	47422.35
606.21	47026.36
606.42	47491.99
606.62	47253.11
606.82	47657.38
607.02	47173.32
607.22	47417.60
607.42	47528.93
607.62	47004.81
607.82	47238.28
608.03	47430.30
608.23	47163.25
608.43	46955.09
608.63	47506.65
608.83	47393.44
609.03	47398.60
609.23	47526.06
609.43	47623.55
609.63	47462.90
609.84	47248.77
610.04	47875.45
610.24	47659.35
610.44	47740.12
610.64	47381.15
610.84	47608.47
611.04	47884.29
611.24	47569.64
611.44	47045.28
611.64	47657.05
611.85	47744.87
612.05	47692.85
612.25	47963.18
612.45	47625.43
612.65	47934.27
612.85	47983.01
613.05	47745.36
613.25	48336.32
613.45	48128.08
613.65	48083.60
613.85	47698.91
614.05	48196.32
614.25	48386.70
614.46	48322.64
614.66	48108.75
614.86	48136.28
615.06	48294.71
615.26	48657.53
615.46	48073.69
615.66	48768.77
615.86	48742.89
616.06	48371.22
616.26	48473.04
616.46	49221.45
616.66	48778.60
616.86	49348.35
617.06	48962.92
617.26	49522.01
617.46	49294.44
617.66	49127.49
617.86	49069.58
618.07	49453.28
618.27	49374.15
618.47	49470.00
618.67	49585.58
618.87	49784.15
619.07	49671.19
619.27	49653.33
619.47	49717.39
619.67	50238.07
619.87	49885.73
620.07	50338.66
620.27	50324.49
620.47	50110.68
620.67	50547.64
620.87	50645.45
621.07	50871.95
621.27	50790.53
621.47	50516.84
621.67	51023.83
621.87	50738.34
622.07	51237.31
622.27	51267.13
622.47	51188.98
622.67	51278.60
622.87	51157.77
623.07	51647.56
623.27	52229.51
623.47	51449.56
623.67	51921.17
623.87	52295.21
624.07	52186.01
624.27	51816.48
624.47	52195.35
624.67	52083.70
624.87	52400.31
625.07	52087.96
625.27	52689.98
625.47	52428.08
625.67	52479.69
625.87	52990.45
626.07	52951.13
626.27	53302.15
626.47	53242.52
626.67	53270.78
626.87	52888.47
627.07	53430.19
627.27	53470.74
627.47	53846.83
627.67	53776.22
627.87	53966.93
628.07	54349.32
628.27	54160.75
628.47	54034.10
628.67	54703.54
628.86	54757.03
629.06	54621.37
629.26	54653.00
629.46	55206.11
629.66	55040.47
629.86	54698.21
630.06	55236.17
630.26	55189.32
630.46	55712.86
630.66	55193.74
630.86	55382.56
631.06	55420.49
631.26	55284.51
631.46	55887.02
631.66	55957.31
631.86	55587.52
632.06	56142.20
632.26	56034.47
632.45	56108.77
632.65	56450.87
632.85	56669.26
633.05	56592.42
633.25	56718.00
633.45	56320.86
633.65	56538.93
633.85	57225.16
634.05	56358.30
634.25	56817.21
634.45	56987.52
634.65	57396.62
634.84	57111.79
635.04	57460.76
635.24	57219.84
635.44	57712.66
635.64	57450.27
635.84	57866.26
636.04	57707.58
636.24	57674.81
636.44	57852.25
636.64	57219.59
636.84	58404.55
637.03	57740.10
637.23	58133.40
637.43	58449.36
637.63	58353.43
637.83	58606.56
638.03	58651.29
638.23	58227.27
638.43	58774.49
638.62	59103.15
638.82	58007.24
639.02	58861.16
639.22	58502.93
639.42	58809.39
639.62	58415.93
639.82	58590.50
640.02	58910.72
640.21	59012.87
640.41	58546.51
640.61	59100.04
640.81	59052.03
641.01	58996.33
641.21	59030.98
641.41	59650.04
641.61	59030.57
641.80	59227.83
642.00	59642.50
642.20	59666.83
642.40	58958.97
642.60	59461.05
642.80	59678.46
642.99	59297.71
643.19	59901.61
643.39	59305.73
643.59	59748.18
643.79	59449.91
643.99	59921.68
644.19	59541.25
644.38	59037.94
644.58	59447.21
644.78	59266.66
644.98	59131.82
645.18	59281.81
645.38	59630.71
645.57	59185.23
645.77	59313.76
645.97	59218.90
646.17	59544.04
646.37	59523.31
646.56	59256.83
646.76	59482.35
646.96	59552.06
647.16	59431.73
647.36	59640.70
647.55	59348.50
647.75	59525.77
647.95	59014.51
648.15	59389.62
648.35	59062.03
648.55	59258.55
648.74	58953.73
648.94	58926.94
649.14	59217.75
649.34	58658.25
649.54	58697.00
649.73	58738.04
649.93	58467.38
650.13	58564.21
650.33	58280.19
650.52	58723.78
650.72	59036.39
650.92	58545.12
651.12	58280.19
651.32	58479.91
651.51	58642.27
651.71	58567.07
651.91	58252.18
652.11	57934.41
652.30	57810.72
652.50	58195.24
652.70	58193.03
652.90	57609.77
653.10	57831.61
653.29	57498.20
653.49	57826.77
653.69	57114.82
653.89	57206.24
654.08	57009.55
654.28	57432.91
654.48	56953.27
654.68	57324.37
654.87	56888.97
655.07	56549.17
655.27	57064.11
655.47	56665.74
655.66	56648.70
655.86	56306.69
656.06	56723.82
656.26	55795.84
656.45	56092.47
656.65	56041.68
656.85	55720.56
657.04	55329.32
657.24	55307.85
657.44	55058.33
657.64	55583.02
657.83	54473.43
658.03	55041.37
658.23	54869.34
658.43	54671.43
658.62	54717.55
658.82	54429.93
659.02	54277.64
659.21	54352.11
659.41	54020.09
659.61	54398.56
659.81	53953.74
660.00	53798.42
660.20	53860.76
660.40	53475.66
660.59	53465.01
660.79	52838.17
660.99	53153.23
661.19	52867.99
661.38	52717.17
661.58	51939.60
661.78	52341.49
661.97	52088.77
662.17	52790.41
662.37	52003.74
662.56	52047.08
662.76	51946.89
662.96	52007.18
663.15	52026.93
663.35	52008.49
663.55	51748.48
663.74	51289.08
663.94	51521.81
664.14	50946.99
664.33	51093.71
664.53	50714.34
664.73	50998.52
664.93	50214.39
665.12	50502.83
665.32	50175.07
665.52	50130.67
665.71	49824.87
665.91	49893.35
666.10	49494.08
666.30	49690.03
666.50	49230.22
666.69	49224.57
666.89	49455.91
667.09	49497.52
667.28	49080.14
667.48	48785.24
667.68	48799.33
667.87	48734.28
668.07	48483.86
668.27	48769.43
668.46	48681.86
668.66	48191.74
668.86	48646.88
669.05	48117.84
669.25	48245.06
669.44	47807.62
669.64	47609.87
669.84	47428.99
670.03	47826.30
670.23	47446.60
670.43	47384.34
670.62	47257.78
670.82	47086.32
671.01	47159.81
671.21	46656.82
671.41	46640.03
671.60	46686.07
671.80	46673.29
672.00	46346.27
672.19	46578.35
672.39	46402.63
672.58	46196.52
672.78	45985.42
672.98	46238.71
673.17	45766.20
673.37	45079.48
673.56	45355.05
673.76	45441.07
673.96	45535.11
674.15	45152.80
674.35	45286.98
674.54	44996.09
674.74	44887.46
674.94	44732.06
675.13	44928.83
675.33	44394.64
675.52	44867.72
675.72	44600.66
675.91	44410.04
676.11	44469.84
676.31	43892.72
676.50	44069.91
676.70	43873.06
676.89	43816.21
677.09	43854.71
677.28	43705.70
677.48	43165.86
677.68	43425.38
677.87	43122.44
678.07	43011.69
678.26	43036.18
678.46	43042.49
678.65	42918.30
678.85	43093.36
679.04	42525.58
679.24	42768.63
679.44	42577.02
679.63	42737.50
679.83	42426.38
680.02	42462.91
680.22	42101.98
680.41	42154.32
680.61	41849.83
680.80	41725.97
681.00	41870.07
681.19	41668.96
681.39	41618.08
681.59	41532.56
681.78	41345.79
681.98	41702.62
682.17	41112.56
682.37	41401.24
682.56	41148.20
682.76	41373.06
682.95	41039.33
683.15	41068.82
683.34	40905.64
683.54	40915.71
683.73	40976.82
683.93	40482.69
684.12	40879.59
684.32	40978.79
684.51	40404.29
684.71	40553.30
684.90	40564.20
685.10	40457.54
685.29	40254.87
685.49	40376.11
685.68	40458.77
685.88	40234.39
686.07	39986.59
686.27	40329.26
686.46	40157.31
686.66	39934.00
686.85	40079.40
687.05	39742.55
687.24	39623.94
687.44	39828.81
687.63	39806.12
687.83	39340.41
688.02	39675.46
688.22	39750.99
688.41	39419.55
688.61	39422.91
688.80	39587.65
689.00	39213.28
689.19	39136.11
689.39	39478.28
689.58	39450.68
689.77	39178.13
689.97	39284.22
690.16	38945.32
690.36	38635.91
690.55	38545.80
690.75	39068.28
690.94	38671.55
691.14	38790.66
691.33	38433.74
691.53	38736.67
691.72	38483.71
691.91	38547.52
692.11	38520.08
692.30	38693.17
692.50	38677.86
692.69	38365.01
692.89	38443.73
693.08	38404.66
693.28	38284.73
693.47	38241.88
693.66	38301.68
693.86	38110.57
694.05	38089.68
694.25	38088.86
694.44	38289.56
694.64	38175.20
694.83	38117.78
695.02	38149.15
695.22	38267.93
695.41	37935.34
695.61	37878.90
695.80	37796.25
695.99	37878.49
696.19	37893.89
696.38	37908.07
696.58	37595.55
696.77	38152.92
696.96	37986.95
697.16	37816.23
697.35	37695.16
697.55	37732.76
697.74	37374.94
697.93	37859.16
698.13	37483.23
698.32	37738.82
698.52	37575.97
698.71	37226.75
698.90	37822.21
699.10	37438.75
699.29	37551.39
699.49	37835.49
699.68	37514.61
699.87	37439.90
700.07	37691.31
700.26	37464.88
700.45	37396.32
700.65	37314.56
700.84	37609.23
701.04	37370.19
701.23	37728.58
701.42	37566.63
701.62	37475.37
701.81	37670.75
702.00	37543.77
702.20	37246.16
702.39	37371.33
702.58	37530.42
702.78	37162.03
702.97	37157.44
703.17	37190.62
703.36	37318.33
703.55	37151.87
703.75	37187.18
703.94	37378.54
704.13	37241.98
704.33	37312.84
704.52	37574.25
704.71	37337.75
704.91	37300.31
705.10	37060.21
705.29	37221.50
705.49	37228.47
705.68	37333.81
705.87	37390.50
706.07	37068.23
706.26	37439.57
706.45	36948.14
706.65	36986.56
706.84	37312.76
707.03	37598.00
707.23	37041.94
707.42	36994.02
707.61	37505.03
707.80	37148.19
708.00	37331.69
708.19	37198.40
708.38	37585.47
708.58	36872.45
708.77	37420.08
708.96	36861.23
709.16	36792.25
709.35	37472.01
709.54	37089.94
709.74	37038.83
709.93	36889.16
710.12	37452.02
710.31	37640.19
710.51	37253.78
710.70	37273.20
710.89	37433.18
711.09	36832.80
711.28	36968.05
711.47	37217.98
711.66	37096.82
711.86	37082.90
712.05	37270.16
712.24	37365.60
712.43	37136.15
712.63	36858.69
712.82	37321.53
713.01	37119.35
713.21	36850.74
713.40	37114.85
713.59	37386.24
713.78	36924.71
713.98	37294.99
714.17	37228.71
714.36	37364.29
714.55	37007.20
714.75	37199.22
714.94	37275.90
715.13	37551.64
715.32	37101.74
715.52	37420.08
715.71	37173.83
715.90	37221.83
716.09	37169.49
716.29	37603.41
716.48	37346.35
716.67	36961.90
716.86	37320.79
717.06	37286.47
717.25	37430.72
717.44	37620.12
717.63	37645.52
717.82	37249.93
718.02	37404.67
718.21	37628.97
718.40	37664.68
718.59	37507.97
718.79	37453.99
718.98	37417.86
719.17	37680.25
719.36	37849.08
719.55	37599.56
719.75	37510.76
719.94	37480.78
720.13	37736.53
720.32	37531.81
720.51	37321.20
720.71	37352.33
720.90	36964.36
721.09	37385.42
721.28	37236.41
721.47	37802.47
721.67	37545.33
721.86	37626.18
722.05	37602.59
722.24	37247.80
722.43	37640.35
722.63	37346.51
722.82	37453.17
723.01	37409.34
723.20	37169.40
723.39	37294.08
723.58	37465.62
723.78	36989.26
723.97	37493.15
724.16	37184.56
724.35	37450.47
724.54	37305.06
724.73	37631.84
724.93	37376.74
725.12	37791.66
725.31	37248.13
725.50	37551.96
725.69	37800.67
725.88	37547.13
726.08	37213.23
726.27	37695.90
726.46	37240.92
726.65	38086.07
726.84	37378.38
727.03	37481.84
727.23	37670.66
727.42	37350.69
727.61	37318.41
727.80	37184.97
727.99	37435.15
728.18	37607.59
728.37	37426.79
728.56	37363.96
728.76	37215.69
728.95	37469.64
729.14	37443.09
729.33	37391.16
729.52	37379.03
729.71	37339.80
729.90	37445.06
730.09	37220.77
730.29	37521.16
730.48	37077.49
730.67	37622.99
730.86	37159.25
731.05	37517.48
731.24	37314.73
731.43	37363.06
731.62	37183.74
731.81	37032.27
732.01	37545.25
732.20	37127.30
732.39	37358.72
732.58	37399.51
732.77	36847.14
732.96	37294.66
733.15	37453.83
733.34	37153.43
733.53	37284.34
733.72	37440.47
733.92	37377.31
734.11	37416.06
734.30	37441.62
734.49	37737.84
734.68	37490.85
734.87	37230.43
735.06	37209.79
735.25	37306.54
735.44	37081.26
735.63	37217.33
735.82	37390.18
736.01	37152.45
736.20	37159.33
736.40	37465.46
736.59	37283.93
736.78	37433.67
736.97	36951.58
737.16	37089.04
737.35	37142.04
737.54	37020.31
737.73	36888.67
737.92	37095.84
738.11	37248.70
738.30	36965.18
738.49	36954.69
738.68	36955.27
738.87	37124.68
739.06	36935.85
739.25	37009.91
739.44	36989.43
739.63	36789.96
739.82	36522.82
740.01	36751.78
740.20	36369.88
740.39	36488.90
740.59	36399.20
740.78	36459.99
740.97	36276.33
741.16	36200.63
741.35	36401.17
741.54	36281.65
741.73	36368.57
741.92	36213.49
742.11	36302.13
742.30	36343.25
742.49	36133.05
742.68	36383.64
742.87	36231.68
743.06	35791.86
743.25	35996.74
743.44	35822.17
743.63	36019.59
743.82	35743.85
744.01	35745.90
744.20	35520.22
744.39	35880.74
744.58	35665.29
744.77	35479.50
744.96	35291.58
745.15	35460.09
745.34	35226.37
745.53	35409.54
745.72	35034.60
745.91	35022.40
746.10	34858.48
746.29	35125.29
746.48	35106.36
746.67	35053.36
746.86	35047.22
747.04	34940.80
747.23	34805.56
747.42	34945.31
747.61	34583.39
747.80	35110.05
747.99	34423.82
748.18	34821.61
748.37	34624.60
748.56	34252.44
748.75	34439.13
748.94	34356.64
749.13	34490.09
749.32	34213.45
749.51	34308.56
749.70	34315.44
749.89	34123.91
750.08	34179.78
750.27	33805.49
750.46	33998.49
750.65	34329.44
750.84	33841.05
751.02	33962.45
751.21	33801.72
751.40	33819.42
751.59	33783.46
751.78	33555.64
751.97	33549.25
752.16	33337.49
752.35	33523.77
752.54	33117.78
752.73	33431.53
752.92	33171.28
753.11	33113.12
753.30	33196.34
753.49	33240.58
753.67	32965.99
753.86	32698.52
754.05	32875.55
754.24	32628.89
754.43	32656.83
754.62	32611.61
754.81	32379.29
755.00	32440.15
755.19	32275.50
755.38	31887.53
755.56	32212.42
755.75	32398.29
755.94	32092.65
756.13	32023.19
756.32	32111.49
756.51	31865.82
756.70	32004.92
756.89	31891.46
757.08	31823.88
757.26	31801.76
757.45	31724.26
757.64	31456.31
757.83	31811.02
758.02	31528.64
758.21	31497.92
758.40	31544.04
758.59	31549.78
758.77	31287.72
758.96	31232.59
759.15	31155.26
759.34	30844.79
759.53	30912.29
759.72	30840.61
759.91	30505.81
760.09	30681.68
760.28	30631.55
760.47	30336.40
760.66	30567.74
760.85	30193.37
761.04	30457.23
761.23	30230.48
761.41	30173.46
761.60	30225.32
761.79	30036.90
761.98	29816.21
762.17	30165.27
762.36	29911.98
762.54	30162.24
762.73	29990.95
762.92	29668.02
763.11	29848.73
763.30	29830.88
763.49	29686.62
763.67	29451.92
763.86	29414.32
764.05	29586.10
764.24	29341.08
764.43	29579.88
764.61	29157.67
764.80	29124.16
764.99	29432.51
765.18	28884.80
765.37	29053.22
765.55	28935.59
765.74	28729.48
765.93	28543.36
766.12	28695.40
766.31	28680.66
766.49	28791.74
766.68	28768.72
766.87	28712.52
767.06	28549.50
767.25	28560.23
767.43	28473.65
767.62	28253.04
767.81	28337.50
768.00	28021.05
768.19	27880.47
768.37	27933.06
768.56	27891.94
768.75	27934.29
768.94	27957.89
769.12	27699.60
769.31	27607.36
769.50	27489.80
769.69	27562.05
769.88	27132.80
770.06	27639.39
770.25	27265.18
770.44	27260.76
770.63	27428.04
770.81	27203.99
771.00	26981.82
771.19	26953.81
771.38	26866.16
771.56	26956.51
771.75	26535.86
771.94	26802.09
772.13	26729.84
772.31	26508.42
772.50	26775.23
772.69	26422.24
772.88	26788.33
773.06	26310.91
773.25	26432.40
773.44	26422.65
773.62	26321.81
773.81	26264.05
774.00	26111.68
774.19	26059.67
774.37	25927.28
774.56	26152.23
774.75	25646.47
774.94	25933.43
775.12	25718.15
775.31	25852.16
775.50	25797.03
775.68	25640.81
775.87	25545.22
776.06	25455.10
776.25	25581.01
776.43	25318.05
776.62	25500.32
776.81	25166.83
776.99	25346.40
777.18	25277.50
777.37	24970.64
777.55	25067.14
777.74	25013.32
777.93	24895.03
778.12	24802.38
778.30	24646.57
778.49	24715.95
778.68	24834.24
778.86	24613.31
779.05	24687.28
779.24	24618.96
779.42	24444.64
779.61	24387.29
779.80	24439.48
779.98	24595.37
780.17	24606.75
780.36	24345.11
780.54	24500.83
780.73	23965.66
780.92	24272.03
781.10	24046.43
781.29	23962.05
781.48	23840.08
781.66	23830.41
781.85	23907.91
782.04	23712.77
782.22	23807.23
782.41	23597.43
782.60	23649.12
782.78	23569.42
782.97	23642.08
783.16	23366.34
783.34	23313.09
783.53	23379.53
783.71	23220.03
783.90	23233.39
784.09	23238.71
784.27	23316.12
784.46	23119.93
784.65	23172.03
784.83	23053.90
785.02	23019.50
785.20	23237.32
785.39	22834.52
785.58	23104.28
785.76	23103.46
785.95	22974.52
786.14	23083.07
786.32	23012.04
786.51	22888.10
786.69	22998.93
786.88	22851.32
787.07	22841.16
787.25	22770.30
787.44	22731.72
787.62	22642.42
787.81	22721.97
788.00	22695.18
788.18	22483.01
788.37	22469.90
788.55	22824.94
788.74	22630.22
788.93	22734.83
789.11	22943.31
789.30	22768.42
789.48	22621.54
789.67	22796.43
789.86	22684.61
790.04	22766.94
790.23	22681.09
790.41	22579.92
790.60	22750.72
790.78	22732.37
790.97	22450.00
791.16	22589.01
791.34	22759.57
791.53	22410.84
791.71	22650.04
791.90	22389.05
792.08	22437.22
792.27	22378.89
792.46	22264.94
792.64	22351.37
792.83	22134.69
793.01	22256.51
793.20	22117.65
793.38	22158.94
793.57	22107.82
793.75	22153.04
793.94	22178.93
794.12	22344.08
794.31	22066.13
794.50	22171.15
794.68	22251.75
794.87	22173.28
795.05	22247.33
795.24	22112.00
795.42	22053.84
795.61	22357.10
795.79	22325.73
795.98	22073.58
796.16	22278.62
796.35	22368.08
796.53	22086.20
796.72	22290.58
796.90	22314.42
797.09	22236.44
797.27	22252.98
797.46	22150.99
797.64	22213.50
797.83	22136.90
798.01	22222.10
798.20	22244.55
798.38	22049.99
798.57	22175.98
798.75	22095.53
798.94	21813.49
799.12	22340.72
799.31	22064.16
799.49	22025.17
799.68	21942.59
799.86	21949.06
800.05	21912.86
800.23	21948.16
800.42	21810.95
800.60	22090.54
800.79	21763.35
800.97	21889.43
801.16	22081.04
801.34	21806.36
801.53	21791.45
801.71	21907.37
801.90	21666.44
802.08	21927.19
802.27	21765.73
802.45	21591.41
802.64	21653.50
802.82	21676.77
803.00	21420.03
803.19	21490.16
803.37	21740.50
803.56	21466.81
803.74	21523.33
803.93	21614.18
804.11	21498.84
804.30	21500.89
804.48	21633.60
804.67	21662.35
804.85	21552.00
805.03	21714.53
805.22	21476.15
805.40	21299.61
805.59	21492.69
805.77	21545.12
805.96	21406.68
806.14	21435.60
806.32	21538.00
806.51	21575.11
806.69	21308.46
806.88	21214.01
807.06	21153.71
807.25	21177.64
807.43	21122.09
807.61	21218.19
807.80	21140.53
807.98	21305.59
808.17	21170.84
808.35	21101.45
808.53	21360.72
808.72	21212.70
808.90	21124.22
809.09	21190.58
809.27	21247.35
809.45	21009.95
809.64	21193.20
809.82	20993.15
810.01	21055.00
810.19	20995.37
810.37	20924.92
810.56	20886.50
810.74	20956.13
810.93	20738.63
811.11	20793.44
811.29	20714.71
811.48	20821.12
811.66	20853.65
811.84	20782.87
812.03	20784.26
812.21	20812.11
812.40	20872.82
812.58	20882.15
812.76	20708.65
812.95	20893.54
813.13	20577.74
813.31	20672.44
813.50	20745.19
813.68	20685.63
813.86	20758.62
814.05	20758.21
814.23	20493.20
814.42	20686.86
814.60	20528.10
814.78	20663.43
814.97	20633.53
815.15	20622.06
815.33	20670.15
815.52	20660.32
815.70	20563.33
815.88	20609.94
816.07	20331.25
816.25	20382.45
816.43	20382.37
816.62	20119.00
816.80	20294.63
816.98	20172.25
817.17	20190.35
817.35	20210.99
817.53	20148.00
817.72	20236.14
817.90	20017.99
818.08	20054.12
818.26	20187.48
818.45	19999.81
818.63	20181.26
818.81	20261.46
819.00	19904.04
819.18	20179.62
819.36	20125.47
819.55	20179.29
819.73	19968.76
819.91	20138.33
820.09	20030.69
820.28	20140.38
820.46	20011.77
820.64	20321.99
820.83	20028.32
821.01	19984.98
821.19	19959.59
821.38	20035.77
821.56	19903.31
821.74	19944.84
821.92	19871.03
822.11	20006.52
822.29	19766.99
822.47	19853.50
822.65	19915.10
822.84	19957.62
823.02	19775.76
823.20	20074.52
823.39	19790.59
823.57	19944.27
823.75	19933.45
823.93	19814.43
824.12	19893.64
824.30	19767.40
824.48	19762.49
824.66	20020.12
824.85	19599.39
825.03	19891.92
825.21	19875.78
825.39	19803.78
825.58	19845.88
825.76	19750.61
825.94	19838.67
826.12	19749.79
826.31	19677.13
826.49	19813.69
826.67	19789.77
826.85	19740.21
827.03	19742.83
827.22	19799.11
827.40	19686.30
827.58	19717.60
827.76	19766.01
827.95	19699.74
828.13	19709.65
828.31	19697.94
828.49	19781.58
828.67	19759.46
828.86	19683.68
829.04	19764.70
829.22	19707.69
829.40	19645.02
829.58	19629.37
829.77	19688.19
829.95	19671.64
830.13	19581.78
830.31	19545.73
830.49	19614.22
830.68	19549.42
830.86	19503.38
831.04	19446.94
831.22	19500.92
831.40	19458.98
831.59	19622.16
831.77	19468.15
831.95	19643.13
832.13	19406.80
832.31	19550.32
832.50	19470.53
832.68	19381.81
832.86	19433.75
833.04	19511.41
833.22	19316.77
833.40	19596.93
833.59	19331.35
833.77	19534.51
833.95	19090.92
834.13	19707.77
834.31	19413.19
834.49	19464.80
834.67	19425.97
834.86	19459.55
835.04	19419.82
835.22	19408.68
835.40	19325.62
835.58	19328.32
835.76	19393.94
835.95	19469.47
836.13	19399.10
836.31	19338.48
836.49	19494.45
836.67	19457.42
836.85	19391.07
837.03	19355.35
837.21	19361.17
837.40	19212.57
837.58	19124.75
837.76	19314.64
837.94	19161.53
838.12	19385.33
838.30	19285.56
838.48	19241.24
838.66	19250.91
838.85	19162.43
839.03	19233.46
839.21	19168.74
839.39	19232.47
839.57	19295.06
839.75	19203.56
839.93	19287.77
840.11	19305.79
840.29	19156.45
840.47	19179.88
840.66	19229.44
840.84	19120.33
841.02	19073.80
841.20	19093.05
841.38	19049.47
841.56	19069.29
841.74	19195.69
841.92	19025.38
842.10	19059.63
842.28	19193.65
842.46	18969.02
842.65	19020.14
842.83	19199.22
843.01	19278.35
843.19	19059.46
843.37	19184.47
843.55	19068.23
843.73	19140.56
843.91	19234.11
844.09	19116.97
844.27	19349.45
844.45	19191.52
844.63	19124.42
844.81	19199.71
844.99	19236.90
845.17	19115.82
845.35	19282.28
845.54	19104.35
845.72	19184.80
845.90	19114.10
846.08	19112.96
846.26	18950.35
846.44	19169.97
846.62	18852.13
846.80	18911.93
846.98	18917.66
847.16	18880.14
847.34	18971.89
847.52	19010.64
847.70	18909.96
847.88	19074.13
848.06	18918.56
848.24	19098.87
848.42	19127.70
848.60	19021.62
848.78	19122.46
848.96	19130.98
849.14	19100.42
849.32	19243.86
849.50	19037.92
849.68	19175.54
849.86	19166.28
850.04	19020.30
850.22	19041.36
850.40	18821.32
850.58	18957.31
850.76	19284.25
850.94	18744.48
851.12	19065.93
851.30	18833.78
851.48	19061.10
851.66	18867.20
851.84	18903.08
852.02	18840.66
852.20	19096.41
852.38	18824.44
852.56	18960.26
852.74	18994.34
852.92	18894.72
853.10	18852.29
853.28	19001.71
853.46	18624.88
853.64	18926.10
853.82	18714.09
854.00	18756.85
854.18	18753.99
854.36	18661.17
854.54	18794.21
854.72	18629.72
854.90	18641.92
855.07	18719.42
855.25	18668.05
855.43	18676.74
855.61	18655.03
855.79	18598.18
855.97	18645.44
856.15	18684.36
856.33	18567.21
856.51	18801.83
856.69	18525.60
856.87	18722.04
857.05	18687.14
857.23	18641.10
857.41	18462.36
857.59	18526.17
857.77	18465.72
857.94	18464.57
858.12	18535.84
858.30	18472.35
858.48	18368.15
858.66	18325.31
858.84	18516.01
859.02	18319.57
859.20	18325.72
859.38	18580.57
859.56	18517.57
859.74	18448.35
859.92	18582.29
860.09	18444.66
860.27	18581.79
860.45	18436.88
860.63	18458.10
860.81	18616.04
860.99	18465.31
861.17	18259.85
861.35	18008.85
861.53	17863.61
861.70	17860.50
861.88	18225.37
862.06	18285.41
862.24	18014.34
862.42	18041.38
862.60	18245.11
862.78	18257.48
862.96	18359.71
863.14	18168.35
863.31	18191.37
863.49	18148.03
863.67	18125.92
863.85	18089.38
864.03	18163.84
864.21	18155.57
864.39	18080.37
864.56	17938.90
864.74	18050.14
864.92	17952.08
865.10	17890.56
865.28	17964.29
865.46	18110.84
865.64	17786.28
865.81	18022.21
865.99	17794.80
866.17	18010.49
866.35	17894.17
866.53	17917.27
866.71	17978.22
866.88	18050.96
867.06	17849.69
867.24	17949.79
867.42	17838.14
867.60	17971.50
867.78	17852.80
867.95	18009.92
868.13	17801.76
868.31	18018.19
868.49	17924.48
868.67	17810.37
868.84	17767.85
869.02	17845.51
869.20	17507.35
869.38	17803.57
869.56	17644.56
869.73	17578.04
869.91	17707.56
870.09	17666.35
870.27	17514.47
870.45	17614.25
870.62	17432.31
870.80	17549.45
870.98	17487.44
871.16	17488.59
871.34	17495.39
871.51	17529.22
871.69	17405.11
871.87	17437.96
872.05	17348.59
872.23	17364.89
872.40	17280.19
872.58	17452.38
872.76	17278.30
872.94	17303.86
873.11	17308.53
873.29	17240.29
873.47	17292.31
873.65	17168.94
873.83	17235.54
874.00	17274.70
874.18	17253.40
874.36	17233.98
874.54	17278.22
874.71	17118.64
874.89	17001.25
875.07	17138.63
875.25	17068.26
875.42	17094.64
875.60	16987.57
875.78	17164.52
875.96	16949.73
876.13	17019.52
876.31	16792.36
876.49	16745.26
876.66	16599.44
876.84	16837.99
877.02	16701.92
877.20	16761.72
877.37	16828.00
877.55	16757.14
877.73	16747.63
877.91	16714.46
878.08	16849.79
878.26	16822.59
878.44	16796.05
878.61	16853.39
878.79	16732.81
878.97	16769.10
879.15	16965.78
879.32	16870.51
879.50	16831.85
879.68	16938.26
879.85	16731.33
880.03	16890.99
880.21	16649.74
880.38	16855.11
880.56	16650.97
880.74	16834.55
880.92	16590.59
881.09	16685.29
881.27	16653.75
881.45	16696.68
881.62	16599.52
881.80	16567.90
881.98	16540.46
882.15	16650.89
882.33	16513.67
882.51	16582.32
882.68	16408.16
882.86	16591.58
883.04	16413.57
883.21	16504.74
883.39	16628.20
883.57	16486.15
883.74	16534.40
883.92	16485.00
884.10	16523.01
884.27	16467.06
884.45	16388.34
884.63	16548.90
884.80	16514.90
884.98	16583.55
885.16	16492.29
885.33	16524.24
885.51	16510.97
885.69	16486.31
885.86	16457.07
886.04	16514.90
886.21	16290.20
886.39	16469.03
886.57	16191.65
886.74	16455.76
886.92	16367.86
887.10	16378.92
887.27	16366.47
887.45	16467.31
887.62	16486.64
887.80	16477.96
887.98	16606.24
888.15	16545.79
888.33	16477.79
888.51	16639.01
888.68	16467.80
888.86	16470.17
889.03	16375.64
889.21	16414.88
889.39	16506.63
889.56	16422.17
889.74	16429.13
889.91	16417.99
890.09	16395.87
890.27	16447.32
890.44	16399.15
890.62	16436.59
890.79	16450.68
890.97	16444.04
891.14	16389.81
891.32	16427.99
891.50	16330.91
891.67	16403.00
891.85	16387.68
892.02	16351.47
892.20	16503.19
892.38	16378.34
892.55	16367.86
892.73	16488.03
892.90	16219.67
893.08	16266.28
893.25	16231.30
893.43	16349.02
893.60	16191.90
893.78	16376.05
893.96	16248.17
894.13	16314.12
894.31	16433.23
894.48	16282.74
894.66	16367.12
894.83	16397.84
895.01	16344.51
895.18	16378.10
895.36	16302.73
895.53	16443.47
895.71	16303.14
895.89	16378.43
896.06	16255.71
896.24	16355.57
896.41	16304.94
896.59	16385.80
896.76	16119.89
896.94	16267.43
897.11	16264.97
897.29	16270.62
897.46	16119.64
897.64	16076.15
897.81	16066.48
897.99	15906.82
898.16	16094.41
898.34	16030.84
898.51	15955.40
898.69	15857.18
898.86	15886.67
899.04	15919.11
899.21	15750.93
899.39	15895.51
899.56	15785.01
899.74	15956.46
899.91	15801.14
900.09	15758.38
900.26	15796.64
900.44	15738.07
900.61	15716.69
900.79	15870.28
900.96	15750.27
901.14	15705.95
901.31	15658.77
901.49	15628.21
901.66	15712.34
901.84	15639.11
902.01	15555.47
902.19	15593.32
902.36	15453.07
902.54	15536.22
902.71	15436.61
902.88	15519.43
903.06	15295.13
903.23	15522.13
903.41	15337.40
903.58	15292.02
903.76	15213.29
903.93	15342.32
904.11	15394.58
904.28	15267.85
904.45	15232.38
904.63	15202.40
904.80	15016.28
904.98	15116.55
905.15	14945.42
905.33	15016.03
905.50	14950.34
905.68	14971.96
905.85	14910.03
906.02	14843.10
906.20	14883.90
906.37	14670.91
906.55	14590.79
906.72	14788.96
906.90	14653.05
907.07	14528.95
907.24	14652.81
907.42	14506.50
907.59	14556.63
907.77	14486.02
907.94	14402.63
908.11	14445.06
908.29	14335.13
908.46	14332.83
908.64	14184.80
908.81	14229.45
908.98	14138.44
909.16	14235.27
909.33	14076.18
909.51	14094.78
909.68	14076.10
909.85	14094.69
910.03	14067.01
910.20	13951.83
910.37	13926.19
910.55	13901.37
910.72	13863.44
910.90	13799.95
911.07	13761.20
911.24	13617.11
911.42	13711.40
911.59	13552.47
911.76	13582.46
911.94	13512.50
912.11	13483.01
912.29	13482.02
912.46	13364.96
912.63	13415.51
912.81	13232.09
912.98	13380.94
913.15	13208.33
913.33	13278.62
913.50	13216.36
913.67	13100.45
913.85	13072.51
914.02	13075.30
914.19	13026.47
914.37	12953.48
914.54	12958.48
914.71	12916.38
914.89	12921.95
915.06	12858.87
915.23	12809.72
915.41	12756.22
915.58	12707.32
915.75	12660.38
915.93	12642.03
916.10	12589.77
916.27	12494.00
916.45	12507.52
916.62	12408.97
916.79	12448.95
916.97	12298.22
917.14	12315.66
917.31	12230.22
917.49	12211.22
917.66	12216.54
917.83	12166.57
918.00	12140.28
918.18	12063.60
918.35	12039.60
918.52	12126.76
918.70	12030.34
918.87	12024.69
919.04	12068.11
919.21	12059.83
919.39	11932.94
919.56	11985.12
919.73	11904.60
919.91	11954.98
920.08	11906.81
920.25	11824.15
920.42	11888.95
920.60	11709.63
920.77	11622.39
920.94	11646.47
921.11	11479.27
921.29	11536.45
921.46	11359.18
921.63	11489.35
921.81	11391.95
921.98	11378.43
922.15	11337.72
922.32	11371.88
922.50	11237.61
922.67	11232.54
922.84	11200.42
923.01	11093.60
923.19	11108.18
923.36	11090.08
923.53	10908.55
923.70	10965.56
923.87	10909.94
924.05	10935.83
924.22	10899.95
924.39	10933.12
924.56	10767.65
924.74	10790.67
924.91	10815.24
925.08	10773.87
925.25	10671.31
925.43	10661.64
925.60	10539.50
925.77	10668.36
925.94	10579.56
926.11	10530.41
926.29	10456.36
926.46	10489.20
926.63	10445.21
926.80	10397.29
926.97	10316.36
927.15	10354.61
927.32	10267.94
927.49	10250.58
927.66	10227.97
927.83	10273.51
928.01	10168.33
928.18	10161.94
928.35	10059.87
928.52	10161.86
928.69	10032.02
928.87	10027.35
929.04	10031.85
929.21	9994.01
929.38	9936.83
929.55	9993.10
929.72	9866.46
929.90	9888.33
930.07	9851.71
930.24	9769.88
930.41	9721.63
930.58	9714.50
930.75	9735.55
930.93	9668.21
931.10	9649.62
931.27	9533.46
931.44	9539.60
931.61	9456.05
931.78	9518.96
931.95	9400.18
932.13	9395.59
932.30	9489.39
932.47	9305.81
932.64	9360.45
932.81	9314.74
932.98	9347.26
933.15	9310.31
933.33	9201.69
933.50	9249.86
933.67	9186.37
933.84	9169.82
934.01	9152.37
934.18	9143.03
934.35	9098.80
934.52	9070.95
934.70	9115.26
934.87	9072.34
935.04	8998.53
935.21	9011.88
935.38	8952.98
935.55	8952.16
935.72	8984.85
935.89	8861.48
936.06	8890.40
936.24	8801.35
936.41	8888.27
936.58	8810.03
936.75	8792.99
936.92	8753.35
937.09	8751.38
937.26	8671.18
937.43	8710.01
937.60	8699.53
937.77	8663.40
937.94	8628.75
938.12	8595.65
938.29	8530.20
938.46	8577.79
938.63	8444.10
938.80	8461.39
938.97	8434.35
939.14	8423.62
939.31	8345.55
939.48	8366.03
939.65	8273.38
939.82	8292.64
939.99	8286.74
940.16	8238.98
940.33	8234.06
940.50	8214.32
940.67	8145.59
940.85	8189.75
941.02	8165.58
941.19	8169.84
941.36	8105.45
941.53	8167.05
941.70	8139.77
941.87	8059.33
942.04	8087.84
942.21	8059.17
942.38	8054.42
942.55	8028.69
942.72	8035.33
942.89	8000.84
943.06	7951.69
943.23	7944.32
943.40	7891.23
943.57	7919.41
943.74	7888.28
943.91	7904.01
944.08	7859.69
944.25	7865.67
944.42	7783.43
944.59	7757.30
944.76	7761.88
944.93	7708.23
945.10	7664.89
945.27	7671.85
945.44	7589.69
945.61	7592.64
945.78	7559.22
945.95	7554.87
946.12	7480.00
946.29	7511.62
946.46	7509.57
946.63	7473.12
946.80	7456.57
946.97	7424.54
947.14	7390.71
947.31	7429.54
947.48	7374.33
947.65	7350.08
947.82	7322.64
947.99	7408.90
948.16	7293.72
948.33	7372.20
948.50	7245.30
948.67	7255.71
948.84	7249.65
949.01	7213.85
949.18	7201.40
949.35	7219.83
949.52	7151.59
949.68	7183.21
949.85	7138.97
950.02	7140.61
950.19	7074.42
950.36	7089.41
950.53	7061.23
950.70	7042.72
950.87	7020.60
951.04	7075.49
951.21	6952.20
951.38	6917.71
951.55	6958.42
951.72	6942.29
951.89	6922.79
952.06	6948.59
952.23	6925.82
952.39	6906.08
952.56	6858.57
952.73	6880.85
952.90	6845.21
953.07	6884.78
953.24	6806.63
953.41	6821.70
953.58	6762.64
953.75	6813.18
953.92	6756.00
954.09	6729.71
954.25	6697.60
954.42	6712.50
954.59	6696.53
954.76	6653.44
954.93	6632.39
955.10	6646.72
955.27	6597.00
955.44	6626.49
955.61	6586.76
955.77	6614.45
955.94	6565.38
956.11	6600.52
956.28	6557.19
956.45	6583.07
956.62	6576.85
956.79	6566.12
956.96	6519.42
957.12	6517.70
957.29	6489.85
957.46	6507.30
957.63	6455.36
957.80	6462.90
957.97	6432.01
958.14	6455.44
958.30	6349.11
958.47	6362.06
958.64	6357.39
958.81	6368.36
958.98	6339.45
959.15	6340.18
959.32	6345.92
959.48	6314.54
959.65	6284.48
959.82	6305.94
959.99	6264.57
960.16	6284.64
960.33	6274.57
960.49	6240.98
960.66	6216.24
960.83	6236.15
961.00	6206.41
961.17	6211.24
961.33	6192.48
961.50	6152.18
961.67	6122.85
961.84	6128.92
962.01	6079.60
962.18	6141.78
962.34	6093.36
962.51	6079.44
962.68	6013.82
962.85	6094.10
963.02	6007.10
963.18	6027.25
963.35	5969.75
963.52	5975.65
963.69	5985.64
963.86	5972.20
964.02	5940.83
964.19	5955.00
964.36	5921.33
964.53	5956.23
964.69	5869.15
964.86	5968.52
965.03	5897.74
965.20	5925.02
965.37	5840.23
965.53	5860.96
965.70	5859.81
965.87	5854.65
966.04	5824.26
966.20	5812.63
966.37	5785.92
966.54	5778.63
966.71	5791.08
966.87	5731.53
967.04	5729.56
967.21	5724.81
967.38	5707.44
967.54	5701.71
967.71	5689.83
967.88	5656.65
968.05	5654.93
968.21	5655.51
968.38	5599.15
968.55	5615.86
968.72	5603.73
968.88	5567.03
969.05	5582.11
969.22	5589.40
969.39	5546.39
969.55	5575.88
969.72	5530.66
969.89	5529.35
970.05	5556.63
970.22	5543.85
970.39	5523.70
970.56	5547.05
970.72	5529.76
970.89	5540.08
971.06	5494.62
971.22	5502.81
971.39	5510.10
971.56	5526.73
971.73	5449.64
971.89	5498.80
972.06	5455.13
972.23	5468.98
972.39	5396.48
972.56	5474.79
972.73	5381.24
972.89	5429.49
973.06	5449.89
973.23	5405.82
973.39	5391.48
973.56	5385.50
973.73	5371.49
973.89	5368.05
974.06	5327.91
974.23	5328.73
974.39	5309.15
974.56	5325.54
974.73	5307.02
974.89	5266.64
975.06	5270.32
975.23	5289.33
975.39	5243.21
975.56	5253.94
975.73	5238.21
975.89	5220.52
976.06	5226.33
976.23	5222.48
976.39	5195.37
976.56	5197.50
976.73	5189.55
976.89	5179.56
977.06	5146.79
977.23	5158.75
977.39	5149.33
977.56	5157.77
977.72	5105.26
977.89	5171.04
978.06	5114.43
978.22	5120.00
978.39	5119.02
978.56	5106.73
978.72	5078.31
978.89	5103.37
979.05	5102.39
979.22	5064.05
979.39	5043.57
979.55	5046.93
979.72	5021.05
979.88	5057.01
980.05	5004.33
980.22	5039.31
980.38	4999.34
980.55	5013.84
980.71	4975.50
980.88	4986.23
981.05	4993.85
981.21	4965.26
981.38	4967.31
981.54	4960.75
981.71	4931.92
981.88	4939.86
982.04	4926.35
982.21	4924.14
982.37	4896.53
982.54	4934.21
982.70	4900.46
982.87	4895.79
983.04	4852.54
983.20	4904.23
983.37	4879.16
983.53	4910.54
983.70	4875.48
983.86	4883.26
984.03	4843.53
984.20	4864.01
984.36	4849.84
984.53	4838.78
984.69	4802.57
984.86	4801.18
985.02	4777.09
985.19	4768.98
985.35	4771.52
985.52	4775.29
985.68	4764.39
985.85	4758.09
986.02	4754.48
986.18	4772.59
986.35	4748.75
986.51	4760.05
986.68	4741.38
986.84	4741.95
987.01	4710.08
987.17	4751.94
987.34	4722.37
987.50	4708.20
987.67	4684.77
987.83	4695.75
988.00	4675.10
988.16	4673.96
988.33	4658.06
988.49	4661.34
988.66	4652.74
988.82	4664.78
988.99	4640.86
989.15	4648.73
989.32	4617.27
989.48	4621.20
989.65	4589.58
989.81	4603.01
989.98	4611.04
990.14	4588.43
990.31	4577.21
990.47	4573.61
990.64	4570.41
990.80	4554.76
990.97	4530.84
991.13	4544.77
991.30	4546.65
991.46	4533.14
991.63	4493.90
991.79	4547.15
991.95	4457.20
992.12	4501.60
992.28	4494.14
992.45	4475.71
992.61	4477.84
992.78	4475.96
992.94	4478.83
993.11	4499.63
993.27	4462.61
993.44	4464.57
993.60	4470.14
993.76	4462.93
993.93	4475.63
994.09	4469.57
994.26	4452.45
994.42	4463.26
994.59	4436.06
994.75	4449.74
994.91	4420.09
995.08	4408.05
995.24	4397.15
995.41	4406.08
995.57	4401.90
995.74	4379.54
995.90	4392.40
996.06	4384.62
996.23	4393.30
996.39	4375.28
996.56	4333.83
996.72	4358.08
996.88	4365.04
997.05	4337.43
997.21	4329.24
997.38	4352.51
997.54	4297.87
997.70	4328.83
997.87	4330.23
998.03	4321.46
998.20	4290.99
998.36	4312.78
998.52	4299.18
998.69	4322.52
998.85	4270.75
999.02	4289.02
999.18	4245.60
999.34	4288.69
999.51	4267.56
999.67	4269.20
999.83	4246.01
1000.00	4267.88
1000.16	4236.35
1000.33	4230.12
1000.49	4231.35
1000.65	4232.91
1000.82	4248.96
1000.98	4220.04
1001.14	4222.67
1001.31	4227.74
1001.47	4235.36
1001.63	4237.17
1001.80	4176.38
1001.96	4182.53
1002.12	4187.36
1002.29	4200.22
1002.45	4173.51
1002.61	4193.58
1002.78	4170.57
1002.94	4184.82
1003.10	4164.26
1003.27	4179.66
1003.43	4151.56
1003.59	4142.80
1003.76	4125.35
1003.92	4129.69
1004.08	4125.10
1004.25	4147.71
1004.41	4145.91
1004.57	4121.99
1004.74	4090.61
1004.90	4121.74
1005.06	4099.46
1005.23	4110.44
1005.39	4094.05
1005.55	4129.44
1005.71	4109.37
1005.88	4102.25
1006.04	4089.55
1006.20	4078.57
1006.37	4032.04
1006.53	4044.82
1006.69	4062.51
1006.85	4065.55
1007.02	4049.74
1007.18	4073.98
1007.34	4043.59
1007.51	4050.31
1007.67	4034.83
1007.83	4025.90
1007.99	4025.00
1008.16	4028.76
1008.32	4001.32
1008.48	4025.73
1008.64	4007.87
1008.81	4017.46
1008.97	3998.45
1009.13	3993.87
1009.29	3989.85
1009.46	3992.23
1009.62	3980.02
1009.78	3961.59
1009.95	3977.40
1010.11	3963.88
1010.27	3950.61
1010.43	3958.89
1010.59	3955.53
1010.76	3956.02
1010.92	3962.57
1011.08	3954.14
1011.24	3934.23
1011.41	3973.88
1011.57	3937.75
1011.73	3942.59
1011.89	3923.09
1012.06	3944.80
1012.22	3923.83
1012.38	3927.10
1012.54	3921.04
1012.70	3914.16
1012.87	3896.30
1013.03	3916.21
1013.19	3914.16
1013.35	3921.04
1013.51	3875.99
1013.68	3891.88
1013.84	3882.46
1014.00	3877.71
1014.16	3861.49
1014.32	3868.04
1014.49	3856.82
1014.65	3877.95
1014.81	3861.16
1014.97	3870.82
1015.13	3852.31
1015.30	3877.87
1015.46	3852.15
1015.62	3855.75
1015.78	3854.20
1015.94	3833.22
1016.10	3832.81
1016.27	3826.26
1016.43	3815.28
1016.59	3833.06
1016.75	3830.03
1016.91	3804.63
1017.07	3795.71
1017.24	3821.67
1017.40	3794.56
1017.56	3784.89
1017.72	3782.93
1017.88	3804.47
1018.04	3804.39
1018.21	3795.38
1018.37	3800.05
1018.53	3797.02
1018.69	3788.33
1018.85	3782.35
1019.01	3751.22
1019.17	3770.23
1019.34	3753.60
1019.50	3751.47
1019.66	3715.51
1019.82	3756.22
1019.98	3724.60
1020.14	3756.55
1020.30	3753.03
1020.46	3745.65
1020.63	3729.92
1020.79	3754.17
1020.95	3726.57
1021.11	3740.57
1021.27	3715.42
1021.43	3713.62
1021.59	3735.99
1021.75	3709.77
1021.91	3685.85
1022.07	3703.55
1022.24	3696.67
1022.40	3689.46
1022.56	3670.04
1022.72	3707.40
1022.88	3659.56
1023.04	3702.15
1023.20	3684.21
1023.36	3689.46
1023.52	3684.21
1023.68	3696.42
1023.84	3669.71
1024.01	3674.47
1024.17	3676.60
1024.33	3674.38
1024.49	3660.05
1024.65	3659.97
1024.81	3663.32
1024.97	3664.06
1025.13	3638.67
1025.29	3661.52
1025.45	3635.31
1025.61	3656.36
1025.77	3617.37
1025.93	3654.23
1026.09	3627.77
1026.25	3658.08
1026.41	3633.01
1026.57	3641.12
1026.73	3623.18
1026.90	3640.22
1027.06	3636.62
1027.22	3635.47
1027.38	3617.78
1027.54	3643.83
1027.70	3626.54
1027.86	3636.78
1028.02	3621.14
1028.18	3619.42
1028.34	3614.34
1028.50	3619.09
1028.66	3591.81
1028.82	3603.77
1028.98	3599.10
1029.14	3592.14
1029.30	3594.35
1029.46	3607.46
1029.62	3596.48
1029.78	3573.38
1029.94	3616.96
1030.10	3608.11
1030.26	3552.65
1030.42	3572.80
1030.58	3558.96
1030.74	3582.80
1030.90	3539.55
1031.06	3568.54
1031.22	3541.43
1031.38	3553.80
1031.54	3548.64
1031.70	3559.45
1031.86	3569.36
1032.02	3548.64
1032.18	3537.83
1032.34	3537.01
1032.50	3537.25
1032.66	3560.19
1032.82	3535.70
1032.98	3540.04
1033.14	3531.11
1033.30	3555.77
1033.45	3502.85
1033.61	3548.39
1033.77	3496.37
1033.93	3529.31
1034.09	3507.76
1034.25	3533.32
1034.41	3511.20
1034.57	3500.47
1034.73	3506.37
1034.89	3512.68
1035.05	3513.25
1035.21	3522.18
1035.37	3494.82
1035.53	3505.30
1035.69	3508.25
1035.85	3498.34
1036.01	3488.18
1036.16	3527.83
1036.32	3487.94
1036.48	3500.39
1036.64	3480.32
1036.80	3494.90
1036.96	3483.02
1037.12	3490.15
1037.28	3480.81
1037.44	3461.48
1037.60	3457.95
1037.76	3456.07
1037.91	3466.23
1038.07	3459.84
1038.23	3459.51
1038.39	3471.23
1038.55	3465.16
1038.71	3462.46
1038.87	3448.78
1039.03	3467.05
1039.19	3452.06
1039.35	3460.33
1039.50	3460.66
1039.66	3463.61
1039.82	3430.84
1039.98	3454.10
1040.14	3443.37
1040.30	3439.69
1040.46	3424.20
1040.62	3429.61
1040.77	3437.15
1040.93	3458.20
1041.09	3422.81
1041.25	3448.94
1041.41	3425.02
1041.57	3435.59
1041.73	3435.59
1041.88	3435.59

