SpectraSuite Data File
++++++++++++++++++++++++++++++++++++
Date: Tue Sep 20 11:50:06 EDT 2022
User: Laboratoire
Dark Spectrum Present: No
Reference Spectrum Present: No
Number of Sampled Component Spectra: 1
Spectrometers: FLMT00174
Integration Time (usec): 15000 (FLMT00174)
Spectra Averaged: 25 (FLMT00174)
Boxcar Smoothing: 0 (FLMT00174)
Correct for Electrical Dark: No (FLMT00174)
Strobe/Lamp Enabled: No (FLMT00174)
Correct for Detector Non-linearity: No (FLMT00174)
Correct for Stray Light: No (FLMT00174)
Number of Pixels in Processed Spectrum: 3648
>>>>>Begin Processed Spectral Data<<<<<
345.74	3148.30
345.96	3148.30
346.18	3148.30
346.39	3165.26
346.61	3194.91
346.83	3215.31
347.05	3199.09
347.27	3201.14
347.49	3213.26
347.71	3218.34
347.93	3211.30
348.15	3213.67
348.36	3210.97
348.58	3203.84
348.80	3210.15
349.02	3229.32
349.24	3208.27
349.46	3305.75
349.68	3319.10
349.90	3341.79
350.11	3309.68
350.33	3331.06
350.55	3323.94
350.77	3341.63
350.99	3333.68
351.21	3336.80
351.43	3318.36
351.65	3352.77
351.86	3315.17
352.08	3357.69
352.30	3313.70
352.52	3333.68
352.74	3299.69
352.96	3324.34
353.18	3358.34
353.39	3347.94
353.61	3325.66
353.83	3348.18
354.05	3361.13
354.27	3345.64
354.49	3330.98
354.70	3345.23
354.92	3325.74
355.14	3333.60
355.36	3324.10
355.58	3343.60
355.80	3321.48
356.02	3345.64
356.23	3323.12
356.45	3339.58
356.67	3346.22
356.89	3346.71
357.11	3339.25
357.33	3332.95
357.54	3323.61
357.76	3329.67
357.98	3320.74
358.20	3336.96
358.42	3323.28
358.63	3338.68
358.85	3353.02
359.07	3355.88
359.29	3320.00
359.51	3341.30
359.73	3323.69
359.94	3352.28
360.16	3334.75
360.38	3335.73
360.60	3335.73
360.82	3344.33
361.03	3355.88
361.25	3328.28
361.47	3344.33
361.69	3355.06
361.91	3335.24
362.12	3359.00
362.34	3349.49
362.56	3355.31
362.78	3341.06
363.00	3355.97
363.21	3347.36
363.43	3349.58
363.65	3325.08
363.87	3325.08
364.09	3365.39
364.30	3327.95
364.52	3317.96
364.74	3361.95
364.96	3356.38
365.17	3356.78
365.39	3327.54
365.61	3336.63
365.83	3350.15
366.05	3349.90
366.26	3344.74
366.48	3353.26
366.70	3352.85
366.92	3342.53
367.13	3350.31
367.35	3346.14
367.57	3351.38
367.79	3338.27
368.01	3348.43
368.22	3377.02
368.44	3351.54
368.66	3361.45
368.88	3372.51
369.09	3354.82
369.31	3359.90
369.53	3343.92
369.75	3342.69
369.96	3376.85
370.18	3346.05
370.40	3393.81
370.62	3377.10
370.83	3336.30
371.05	3357.93
371.27	3388.65
371.49	3349.17
371.70	3358.26
371.92	3342.78
372.14	3356.87
372.36	3329.67
372.57	3386.44
372.79	3366.21
373.01	3357.77
373.22	3359.00
373.44	3366.61
373.66	3353.51
373.88	3372.27
374.09	3367.27
374.31	3357.44
374.53	3364.24
374.75	3366.94
374.96	3388.98
375.18	3370.63
375.40	3362.03
375.61	3360.72
375.83	3358.67
376.05	3370.87
376.27	3383.16
376.48	3359.82
376.70	3357.19
376.92	3382.92
377.13	3365.14
377.35	3377.76
377.57	3372.59
377.79	3390.54
378.00	3376.12
378.22	3390.37
378.44	3381.77
378.65	3400.77
378.87	3378.98
379.09	3384.72
379.30	3384.88
379.52	3380.62
379.74	3374.32
379.96	3395.70
380.17	3383.41
380.39	3410.69
380.61	3386.68
380.82	3396.68
381.04	3401.92
381.26	3410.61
381.47	3412.98
381.69	3416.59
381.91	3404.63
382.12	3432.64
382.34	3414.05
382.56	3411.42
382.77	3410.11
382.99	3401.68
383.21	3412.00
383.42	3448.53
383.64	3427.40
383.86	3415.52
384.07	3423.22
384.29	3425.84
384.51	3431.33
384.72	3415.03
384.94	3419.62
385.16	3446.98
385.37	3439.44
385.59	3423.88
385.81	3436.25
386.02	3418.14
386.24	3441.65
386.46	3435.75
386.67	3462.46
386.89	3484.33
387.11	3469.50
387.32	3454.76
387.54	3447.55
387.76	3460.33
387.97	3471.63
388.19	3473.27
388.40	3458.12
388.62	3463.77
388.84	3475.73
389.05	3479.01
389.27	3487.36
389.49	3492.69
389.70	3459.92
389.92	3497.03
390.14	3489.08
390.35	3515.46
390.57	3495.88
390.78	3503.01
391.00	3505.88
391.22	3507.43
391.43	3497.19
391.65	3532.91
391.86	3506.78
392.08	3528.57
392.30	3528.98
392.51	3521.85
392.73	3549.70
392.95	3546.75
393.16	3507.84
393.38	3546.75
393.59	3543.31
393.81	3579.77
394.03	3544.95
394.24	3574.69
394.46	3545.03
394.67	3579.69
394.89	3543.31
395.11	3581.65
395.32	3594.10
395.54	3601.15
395.75	3591.24
395.97	3581.24
396.19	3587.14
396.40	3601.48
396.62	3613.93
396.83	3606.96
397.05	3613.27
397.26	3635.23
397.48	3622.12
397.70	3619.42
397.91	3638.42
398.13	3624.25
398.34	3639.98
398.56	3656.36
398.78	3669.96
398.99	3701.33
399.21	3661.28
399.42	3699.45
399.64	3667.09
399.85	3681.84
400.07	3700.27
400.29	3710.92
400.50	3671.19
400.72	3729.51
400.93	3701.01
401.15	3717.39
401.36	3723.62
401.58	3746.80
401.79	3742.54
402.01	3725.34
402.23	3748.52
402.44	3779.16
402.66	3770.97
402.87	3763.84
403.09	3784.07
403.30	3782.76
403.52	3768.10
403.73	3792.43
403.95	3790.38
404.16	3807.75
404.38	3789.89
404.60	3807.50
404.81	3826.75
405.03	3824.70
405.24	3837.57
405.46	3847.64
405.67	3874.35
405.89	3892.12
406.10	3850.51
406.32	3853.54
406.53	3912.36
406.75	3899.25
406.96	3898.27
407.18	3909.90
407.39	3898.10
407.61	3921.86
407.82	3918.67
408.04	3933.41
408.25	3941.60
408.47	3954.71
408.68	3989.20
408.90	3943.90
409.12	4009.19
409.33	3991.98
409.55	3975.35
409.76	3986.08
409.98	4029.67
410.19	4014.10
410.41	4040.89
410.62	4036.30
410.84	4031.30
411.05	4057.76
411.27	4073.08
411.48	4063.25
411.70	4079.06
411.91	4086.60
412.12	4080.86
412.34	4098.07
412.55	4102.41
412.77	4104.05
412.98	4141.73
413.20	4115.43
413.41	4138.94
413.63	4149.02
413.84	4169.75
414.06	4174.74
414.27	4197.35
414.49	4194.73
414.70	4197.03
414.92	4206.12
415.13	4224.80
415.35	4246.59
415.56	4255.68
415.78	4242.74
415.99	4252.65
416.21	4261.25
416.42	4322.20
416.63	4314.25
416.85	4316.22
417.06	4314.33
417.28	4314.41
417.49	4364.06
417.71	4348.98
417.92	4346.20
418.14	4345.30
418.35	4374.87
418.57	4415.01
418.78	4412.72
418.99	4411.32
419.21	4455.32
419.42	4429.84
419.64	4433.69
419.85	4474.48
420.07	4499.72
420.28	4487.43
420.50	4469.24
420.71	4515.69
420.92	4523.06
421.14	4555.50
421.35	4537.32
421.57	4530.52
421.78	4559.43
422.00	4572.05
422.21	4597.94
422.42	4611.29
422.64	4610.39
422.85	4658.80
423.07	4653.15
423.28	4676.09
423.50	4673.22
423.71	4720.40
423.92	4746.37
424.14	4733.51
424.35	4763.98
424.57	4775.04
424.78	4803.63
424.99	4808.47
425.21	4826.65
425.42	4817.40
425.64	4821.49
425.85	4851.64
426.06	4838.61
426.28	4848.53
426.49	4915.29
426.71	4906.28
426.92	4897.51
427.13	4944.86
427.35	5005.24
427.56	5020.06
427.78	4999.09
427.99	5031.94
428.20	5061.76
428.42	5081.99
428.63	5099.93
428.84	5049.96
429.06	5117.79
429.27	5134.50
429.49	5142.20
429.70	5198.15
429.91	5201.68
430.13	5216.75
430.34	5226.01
430.56	5261.89
430.77	5282.86
430.98	5267.54
431.20	5303.17
431.41	5370.59
431.62	5364.86
431.84	5335.94
432.05	5395.01
432.26	5379.77
432.48	5382.06
432.69	5470.21
432.91	5452.92
433.12	5483.64
433.33	5489.87
433.55	5580.80
433.76	5562.20
433.97	5539.02
434.19	5575.06
434.40	5631.50
434.61	5635.52
434.83	5681.07
435.04	5630.28
435.25	5742.59
435.47	5720.96
435.68	5682.79
435.89	5789.36
436.11	5767.98
436.32	5791.16
436.53	5795.42
436.75	5807.22
436.96	5848.67
437.17	5827.45
437.39	5878.65
437.60	5902.98
437.81	5927.64
438.03	5941.08
438.24	5965.90
438.45	6049.13
438.67	5981.87
438.88	6049.21
439.09	6151.93
439.31	6112.29
439.52	6157.01
439.73	6142.51
439.94	6102.54
440.16	6171.35
440.37	6152.18
440.58	6260.48
440.80	6277.27
441.01	6230.00
441.22	6392.78
441.44	6341.58
441.65	6337.07
441.86	6353.37
442.08	6391.46
442.29	6387.78
442.50	6455.61
442.71	6435.05
442.93	6487.96
443.14	6476.41
443.35	6587.91
443.57	6473.96
443.78	6614.20
443.99	6599.87
444.20	6604.94
444.42	6661.39
444.63	6689.40
444.84	6748.38
445.06	6803.52
445.27	6700.30
445.48	6713.98
445.69	6791.06
445.91	6798.68
446.12	6782.63
446.33	6859.79
446.54	6954.00
446.76	6850.95
446.97	6913.21
447.18	6921.81
447.39	6988.98
447.61	7033.63
447.82	7073.03
448.03	7015.52
448.25	7105.71
448.46	7170.51
448.67	7185.59
448.88	7136.19
449.10	7247.68
449.31	7268.73
449.52	7243.34
449.73	7292.82
449.95	7405.54
450.16	7309.61
450.37	7454.61
450.58	7604.93
450.79	7402.51
451.01	7506.46
451.22	7457.56
451.43	7522.43
451.64	7642.04
451.86	7629.50
452.07	7641.30
452.28	7739.85
452.49	7843.39
452.71	7730.84
452.92	7718.22
453.13	7833.40
453.34	7837.66
453.55	7930.23
453.77	8013.62
453.98	7987.98
454.19	7952.34
454.40	8041.39
454.62	8110.94
454.83	8043.19
455.04	8187.86
455.25	8106.19
455.46	8388.32
455.68	8239.80
455.89	8276.50
456.10	8271.66
456.31	8378.08
456.52	8440.50
456.74	8402.49
456.95	8579.68
457.16	8534.87
457.37	8611.38
457.58	8620.47
457.80	8603.11
458.01	8584.59
458.22	8972.40
458.43	8754.82
458.64	8862.54
458.86	8742.53
459.07	8871.88
459.28	8885.32
459.49	9007.87
459.70	9205.05
459.91	9137.05
460.13	9111.90
460.34	9201.77
460.55	9147.95
460.76	9350.86
460.97	9322.03
461.19	9312.52
461.40	9554.10
461.61	9461.21
461.82	9501.26
462.03	9596.13
462.24	9608.09
462.46	9643.56
462.67	9635.69
462.88	9759.96
463.09	9742.11
463.30	9921.75
463.51	9825.33
463.72	10047.58
463.94	10106.64
464.15	10098.21
464.36	9976.64
464.57	10347.08
464.78	10283.59
464.99	10329.14
465.20	10315.13
465.42	10485.85
465.63	10469.87
465.84	10481.26
466.05	10632.15
466.26	10708.66
466.47	10803.12
466.68	10718.00
466.90	10958.03
467.11	10900.68
467.32	11017.01
467.53	11198.13
467.74	10969.66
467.95	11109.49
468.16	11333.62
468.37	11399.90
468.59	11410.38
468.80	11589.62
469.01	11406.86
469.22	11630.74
469.43	11919.42
469.64	11768.37
469.85	11926.88
470.06	11969.72
470.28	12126.10
470.49	11936.87
470.70	12117.75
470.91	12424.86
471.12	12294.28
471.33	12557.98
471.54	12475.73
471.75	12556.26
471.96	12857.64
472.17	12811.52
472.39	13149.60
472.60	12861.00
472.81	13181.87
473.02	13167.46
473.23	13417.39
473.44	13447.04
473.65	13433.94
473.86	13564.76
474.07	13675.68
474.28	13764.07
474.49	14084.21
474.71	13995.65
474.92	14206.27
475.13	14107.56
475.34	14249.68
475.55	14330.78
475.76	14415.82
475.97	14803.86
476.18	14757.74
476.39	14989.49
476.60	15089.43
476.81	15141.94
477.02	15354.11
477.23	15396.55
477.44	15366.40
477.65	15636.98
477.87	15822.61
478.08	15881.18
478.29	15939.83
478.50	16358.11
478.71	16214.75
478.92	16425.69
479.13	16503.11
479.34	16621.15
479.55	16801.70
479.76	16762.46
479.97	16841.92
480.18	17396.10
480.39	17082.27
480.60	17532.01
480.81	17589.27
481.02	17687.98
481.23	17771.78
481.44	18051.12
481.65	18182.77
481.86	18496.84
482.07	18144.84
482.28	18847.13
482.49	18644.30
482.71	18742.68
482.92	18954.61
483.13	19234.60
483.34	19100.18
483.55	19338.48
483.76	19377.06
483.97	19657.63
484.18	19686.88
484.39	19916.74
484.60	19830.81
484.81	20264.57
485.02	20216.40
485.23	20530.15
485.44	20658.93
485.65	20887.81
485.86	20740.11
486.07	21153.39
486.28	21111.94
486.49	21369.41
486.70	21537.75
486.91	21732.55
487.12	21681.11
487.33	21617.05
487.54	22135.76
487.75	22262.89
487.96	22330.56
488.17	22360.87
488.38	22641.44
488.59	22686.50
488.80	22866.72
489.01	22881.87
489.22	23277.38
489.43	23306.87
489.64	23191.03
489.85	23784.21
490.06	23408.28
490.26	23828.03
490.47	23704.58
490.68	24107.71
490.89	24391.64
491.10	24161.77
491.31	24499.93
491.52	24795.49
491.73	24659.26
491.94	24782.06
492.15	24988.00
492.36	25127.10
492.57	25265.38
492.78	25210.82
492.99	25414.72
493.20	25651.46
493.41	25716.51
493.62	25857.90
493.83	25880.67
494.04	26039.59
494.25	26328.52
494.46	26376.44
494.67	26304.44
494.88	26609.01
495.08	26724.19
495.29	26851.98
495.50	27178.68
495.71	27002.96
495.92	27360.04
496.13	27412.80
496.34	27288.69
496.55	27524.21
496.76	27927.41
496.97	27562.30
497.18	27919.06
497.39	27850.90
497.60	28373.95
497.81	28001.71
498.02	28367.40
498.22	28088.46
498.43	28656.00
498.64	28705.48
498.85	28763.23
499.06	28874.56
499.27	29256.22
499.48	28599.47
499.69	29131.54
499.90	29353.95
500.11	29547.44
500.32	29883.39
500.52	29474.04
500.73	30151.83
500.94	30123.98
501.15	30171.33
501.36	30285.03
501.57	30039.11
501.78	30332.71
501.99	30706.26
502.20	30681.03
502.41	30697.82
502.61	30671.61
502.82	31082.02
503.03	30805.46
503.24	31277.81
503.45	31115.44
503.66	31482.69
503.87	31399.87
504.08	31776.20
504.28	31601.71
504.49	31796.52
504.70	31800.53
504.91	32052.35
505.12	31816.10
505.33	32379.53
505.54	32357.99
505.75	32461.62
505.95	32717.37
506.16	32665.76
506.37	32591.37
506.58	33118.28
506.79	32684.76
507.00	33198.47
507.21	32940.92
507.41	33052.00
507.62	33213.63
507.83	33646.98
508.04	33235.42
508.25	33777.31
508.46	33496.41
508.67	34012.99
508.87	33726.85
509.08	34212.22
509.29	34011.27
509.50	34256.70
509.71	34460.68
509.92	34578.72
510.12	34462.81
510.33	34757.47
510.54	34610.34
510.75	34944.98
510.96	35057.29
511.17	35325.17
511.37	35230.47
511.58	35483.02
511.79	35352.94
512.00	35278.56
512.21	35785.14
512.42	35760.73
512.62	35961.92
512.83	36237.00
513.04	36068.66
513.25	36485.14
513.46	35762.45
513.66	36791.19
513.87	36442.29
514.08	36895.39
514.29	36622.35
514.50	36598.43
514.71	36976.65
514.91	36790.61
515.12	36841.48
515.33	37219.13
515.54	37103.95
515.75	37638.39
515.95	37313.09
516.16	37453.50
516.37	37958.28
516.58	37938.46
516.78	37758.65
516.99	38059.12
517.20	38123.68
517.41	38130.88
517.62	38334.12
517.82	38240.41
518.03	38886.42
518.24	39243.18
518.45	38651.31
518.66	39089.66
518.86	38765.18
519.07	39363.60
519.28	38702.68
519.49	39428.97
519.69	39455.43
519.90	39595.26
520.11	39706.92
520.32	39584.78
520.52	40072.11
520.73	39700.04
520.94	40293.95
521.15	40301.73
521.36	39973.65
521.56	40767.11
521.77	40143.55
521.98	40773.75
522.19	40363.42
522.39	40788.57
522.60	40664.06
522.81	40924.07
523.02	40737.54
523.22	41124.44
523.43	41402.64
523.64	41166.88
523.84	41354.55
524.05	41765.54
524.26	41754.72
524.47	41546.90
524.67	41784.05
524.88	42018.01
525.09	42396.64
525.30	41996.96
525.50	42066.18
525.71	42206.10
525.92	42315.62
526.13	42579.89
526.33	42428.75
526.54	42327.34
526.75	42703.26
526.95	43188.71
527.16	42563.92
527.37	43201.00
527.58	43387.53
527.78	43278.82
527.99	43611.25
528.20	43786.15
528.40	43505.98
528.61	43416.45
528.82	43991.02
529.03	43972.18
529.23	43920.57
529.44	44213.68
529.65	44279.30
529.85	44380.38
530.06	44248.25
530.27	44396.85
530.47	44036.57
530.68	44994.28
530.89	44312.80
531.09	44958.07
531.30	44882.96
531.51	44461.65
531.72	45116.42
531.92	45077.76
532.13	45385.53
532.34	45203.18
532.54	45236.19
532.75	45392.00
532.96	45479.41
533.16	45773.90
533.37	45933.73
533.58	45628.99
533.78	46109.93
533.99	46203.98
534.20	45771.69
534.40	46202.26
534.61	46428.43
534.82	46505.52
535.02	46523.38
535.23	46539.76
535.44	46887.18
535.64	46847.94
535.85	46881.20
536.06	46941.00
536.26	46900.70
536.47	47002.36
536.68	47765.84
536.88	47133.02
537.09	47820.40
537.29	47187.25
537.50	48197.72
537.71	47633.13
537.91	47809.18
538.12	48037.32
538.33	47692.77
538.53	47973.83
538.74	48121.37
538.95	48211.40
539.15	48088.60
539.36	48441.83
539.56	48798.02
539.77	48240.56
539.98	48485.00
540.18	48794.08
540.39	48537.51
540.60	48913.93
540.80	49167.80
541.01	49068.27
541.21	49098.90
541.42	49253.48
541.63	49272.00
541.83	49473.11
542.04	49543.72
542.25	49422.56
542.45	49695.52
542.66	49696.17
542.86	50002.71
543.07	48969.23
543.28	50054.32
543.48	49803.24
543.69	50148.77
543.89	49892.29
544.10	50505.94
544.31	50271.82
544.51	50164.83
544.72	50460.15
544.92	50325.56
545.13	50747.19
545.33	50717.04
545.54	50497.91
545.75	50892.51
545.95	50765.21
546.16	50729.09
546.36	51318.82
546.57	50436.96
546.78	49748.11
546.98	50412.88
547.19	49659.56
547.39	50762.59
547.60	51200.86
547.80	51758.23
548.01	51892.17
548.22	51463.41
548.42	51643.05
548.63	51934.36
548.83	51677.79
549.04	52162.99
549.24	51801.57
549.45	52190.60
549.65	52496.89
549.86	51742.83
550.07	52021.19
550.27	52513.03
550.48	52477.81
550.68	52236.64
550.89	52339.53
551.09	52505.74
551.30	52403.51
551.50	52724.30
551.71	52486.65
551.91	52543.01
552.12	52919.92
552.33	53215.48
552.53	52728.89
552.74	53445.19
552.94	53402.67
553.15	53125.37
553.35	53470.09
553.56	53062.62
553.76	53567.90
553.97	53133.81
554.17	53400.54
554.38	54216.53
554.58	53375.31
554.79	54151.00
554.99	53597.96
555.20	53700.03
555.40	54229.72
555.61	53867.07
555.81	53587.72
556.02	54518.48
556.22	54277.97
556.43	54048.93
556.63	54108.32
556.84	54125.27
557.04	54680.03
557.25	54083.41
557.45	54631.37
557.66	54641.94
557.86	54438.78
558.07	55055.71
558.27	54660.45
558.48	54829.45
558.68	54906.94
558.89	55111.00
559.09	55155.24
559.30	54899.41
559.50	55191.53
559.71	54697.31
559.91	55535.42
560.12	55201.03
560.32	55296.55
560.53	55531.33
560.73	55190.14
560.94	55779.95
561.14	55241.17
561.35	55929.04
561.55	55644.62
561.76	55784.38
561.96	55184.24
562.17	55827.05
562.37	56079.61
562.57	55738.99
562.78	55661.99
562.98	56081.49
563.19	56073.71
563.39	56314.88
563.60	56435.06
563.80	55942.31
564.01	56596.27
564.21	56219.20
564.42	56258.03
564.62	56479.70
564.82	56755.52
565.03	56303.90
565.23	56325.94
565.44	56645.75
565.64	56369.27
565.85	56879.14
566.05	56600.94
566.25	56903.79
566.46	56535.24
566.66	56872.50
566.87	56864.88
567.07	56916.00
567.28	57020.94
567.48	57418.24
567.68	56570.30
567.89	57646.39
568.09	57089.34
568.30	57177.16
568.50	57653.84
568.71	57477.88
568.91	57868.55
569.11	57362.38
569.32	57457.07
569.52	57671.95
569.73	57063.86
569.93	57840.37
570.13	57643.77
570.34	57536.04
570.54	58023.13
570.75	57856.67
570.95	57781.39
571.15	57699.39
571.36	58409.30
571.56	57753.37
571.77	57710.61
571.97	57218.36
572.17	58145.60
572.38	57989.87
572.58	58303.95
572.79	58096.29
572.99	58183.04
573.19	58261.84
573.40	58137.57
573.60	58294.53
573.81	58137.41
574.01	58407.74
574.21	58343.68
574.42	58417.65
574.62	58207.37
574.82	58633.51
575.03	58283.14
575.23	58870.50
575.43	58528.08
575.64	58482.45
575.84	58915.96
576.05	58415.61
576.25	58719.77
576.45	58578.79
576.66	59193.83
576.86	58699.62
577.06	59101.10
577.27	59043.92
577.47	59055.72
577.67	59012.14
577.88	58528.33
578.08	59339.24
578.28	59360.54
578.49	59213.00
578.69	59283.94
578.89	58989.61
579.10	59255.60
579.30	59831.49
579.50	59282.47
579.71	58844.12
579.91	59507.66
580.11	59185.23
580.32	59243.07
580.52	59227.17
580.72	59911.36
580.93	59365.70
581.13	59436.80
581.33	59938.64
581.54	59453.52
581.74	59539.86
581.94	59660.69
582.15	60083.47
582.35	59630.62
582.55	59828.62
582.76	59490.63
582.96	60055.29
583.16	59771.77
583.37	59927.01
583.57	59705.50
583.77	60214.70
583.97	59204.56
584.18	60478.89
584.38	60255.75
584.58	59846.48
584.79	60332.18
584.99	60236.50
585.19	60168.83
585.40	60063.07
585.60	60357.33
585.80	59914.14
586.00	60372.64
586.21	60346.76
586.41	60310.14
586.61	60609.88
586.82	60466.85
587.02	60352.16
587.22	60736.77
587.42	60009.74
587.63	60811.07
587.83	60106.33
588.03	60584.32
588.23	60259.51
588.44	60588.17
588.64	60293.92
588.84	60587.84
589.05	60873.99
589.25	60904.38
589.45	60848.35
589.65	60613.73
589.86	60953.86
590.06	60926.99
590.26	60743.98
590.46	61038.73
590.67	60397.47
590.87	61078.78
591.07	61327.82
591.27	60653.95
591.48	61172.25
591.68	60584.73
591.88	61682.36
592.08	60836.96
592.29	61235.58
592.49	61113.35
592.69	61369.68
592.89	60981.79
593.10	61094.10
593.30	60882.51
593.50	61619.37
593.70	60556.80
593.90	61496.41
594.11	61288.74
594.31	61293.41
594.51	61593.07
594.71	61652.05
594.92	61617.32
595.12	61436.77
595.32	61459.62
595.52	61766.49
595.72	60902.74
595.93	61720.78
596.13	61473.22
596.33	61121.05
596.53	61748.47
596.73	61504.68
596.94	61473.63
597.14	61868.73
597.34	61553.91
597.54	61871.84
597.74	61570.05
597.95	61676.38
598.15	61698.01
598.35	61842.10
598.55	62020.19
598.75	61668.60
598.96	62291.84
599.16	61774.36
599.36	61945.98
599.56	61872.74
599.76	61803.68
599.97	62273.08
600.17	62033.22
600.37	62289.05
600.57	61438.73
600.77	62552.58
600.97	62116.86
601.18	62687.01
601.38	62048.54
601.58	62490.08
601.78	62240.31
601.98	61985.87
602.18	62370.81
602.39	62814.89
602.59	62486.97
602.79	62426.59
602.99	62454.28
603.19	62394.81
603.39	62204.18
603.60	62242.77
603.80	62360.81
604.00	62281.19
604.20	62400.79
604.40	62621.40
604.60	62370.40
604.80	62407.10
605.01	62599.28
605.21	62429.30
605.41	62379.49
605.61	62023.31
605.81	62417.42
606.01	62809.24
606.21	62159.21
606.42	62573.23
606.62	62337.22
606.82	62802.85
607.02	62538.99
607.22	62703.48
607.42	62989.29
607.62	62344.84
607.82	62565.69
608.03	62614.43
608.23	62453.63
608.43	62211.72
608.63	62718.39
608.83	62688.41
609.03	62582.89
609.23	62755.74
609.43	62844.95
609.63	62639.91
609.84	62419.71
610.04	62999.37
610.24	62966.77
610.44	63010.76
610.64	62747.88
610.84	63072.85
611.04	63490.47
611.24	63029.84
611.44	62314.45
611.64	62913.52
611.85	62845.28
612.05	62834.47
612.25	62989.13
612.45	62628.03
612.65	63015.51
612.85	63106.03
613.05	62730.35
613.25	63306.15
613.45	63023.29
613.65	63132.98
613.85	62661.70
614.05	63115.12
614.25	63304.02
614.46	63041.64
614.66	62768.93
614.86	62573.72
615.06	62817.10
615.26	63186.80
615.46	62404.56
615.66	63162.96
615.86	63065.97
616.06	62660.06
616.26	62703.97
616.46	63305.01
616.66	62728.71
616.86	63283.05
617.06	62780.56
617.26	63350.47
617.46	63118.64
617.66	62726.01
617.86	62587.07
618.07	63047.54
618.27	62941.21
618.47	63024.27
618.67	63016.00
618.87	63161.49
619.07	62886.08
619.27	62672.68
619.47	62858.30
619.67	63350.47
619.87	62788.35
620.07	63140.02
620.27	63176.48
620.47	62753.61
620.67	63009.69
620.87	63017.47
621.07	63183.60
621.27	62858.96
621.47	62590.02
621.67	62966.03
621.87	62692.67
622.07	63159.03
622.27	62961.52
622.47	62681.93
622.67	62825.37
622.87	62290.77
623.07	62705.12
623.27	63141.25
623.47	62277.50
623.67	62837.17
623.87	63271.67
624.07	63096.03
624.27	62613.78
624.47	62953.82
624.67	62842.17
624.87	62955.38
625.07	62610.91
625.27	63102.42
625.47	62662.36
625.67	62519.08
625.87	62814.97
626.07	62642.94
626.27	62870.02
626.47	62735.02
626.67	62559.63
626.87	62249.48
627.07	62696.27
627.27	62655.72
627.47	62852.08
627.67	62503.19
627.87	62501.22
628.07	62790.89
628.27	62636.06
628.47	62472.88
628.67	62948.91
628.86	62948.50
629.06	62642.69
629.26	62456.49
629.46	62917.20
629.66	62826.85
629.86	62262.26
630.06	62818.82
630.26	62553.73
630.46	62921.55
630.66	62495.00
630.86	62548.24
631.06	62595.51
631.26	62225.73
631.46	62761.48
631.66	62605.83
631.86	62209.59
632.06	62830.94
632.26	62474.68
632.45	62486.23
632.65	62640.65
632.85	62680.62
633.05	62549.14
633.25	62576.26
633.45	62283.56
633.65	62422.33
633.85	63003.22
634.05	61982.68
634.25	62416.27
634.45	62384.16
634.65	62709.95
634.84	62223.19
635.04	62427.90
635.24	62094.00
635.44	62459.28
635.64	62073.20
635.84	62402.51
636.04	62205.00
636.24	62178.87
636.44	62301.99
636.64	61737.49
636.84	62650.72
637.03	61937.05
637.23	62277.75
637.43	62370.81
637.63	62086.06
637.83	62418.73
638.03	62220.08
638.23	61757.40
638.43	62290.12
638.62	62481.07
638.82	61394.42
639.02	62354.42
639.22	61885.77
639.42	62253.99
639.62	61762.23
639.82	62002.50
640.02	62122.43
640.21	62266.61
640.41	61685.47
640.61	62179.44
640.81	62087.78
641.01	61940.00
641.21	61850.46
641.41	62554.71
641.61	61922.63
641.80	61920.50
642.00	62262.92
642.20	62264.72
642.40	61516.39
642.60	62084.09
642.80	62247.93
642.99	61639.44
643.19	62014.54
643.39	61471.09
643.59	61947.04
643.79	61684.25
643.99	61905.43
644.19	61767.80
644.38	61321.10
644.58	61686.38
644.78	61479.04
644.98	61538.18
645.18	61757.32
645.38	62048.95
645.57	61588.65
645.77	61745.77
645.97	61574.39
646.17	61811.22
646.37	61716.11
646.56	61419.57
646.76	61482.56
646.96	61513.53
647.16	61150.95
647.36	61415.14
647.55	61164.39
647.75	61329.54
647.95	60922.24
648.15	61373.20
648.35	61248.03
648.55	61443.81
648.74	61264.99
648.94	61092.05
649.14	61493.05
649.34	60957.71
649.54	60899.22
649.73	61066.09
649.93	60783.06
650.13	61073.46
650.33	60677.14
650.52	61251.71
650.72	61371.07
650.92	60911.01
651.12	60694.75
651.32	61095.25
651.51	61163.24
651.71	61065.27
651.91	60750.45
652.11	60548.28
652.30	60430.40
652.50	60940.59
652.70	60944.19
652.90	60542.13
653.10	60871.61
653.29	60662.96
653.49	61049.05
653.69	60568.84
653.89	60752.58
654.08	60653.13
654.28	61102.70
654.48	60775.27
654.68	61089.92
654.87	60830.65
655.07	60356.83
655.27	60961.23
655.47	60549.83
655.66	60407.62
655.86	60264.92
656.06	60816.73
656.26	59872.20
656.45	60340.94
656.65	60272.87
656.85	60089.45
657.04	59745.88
657.24	59831.33
657.44	59795.28
657.64	60458.58
657.83	59440.57
658.03	60214.05
658.23	60043.00
658.43	59839.93
658.62	60009.17
658.82	59747.52
659.02	59750.72
659.21	59965.10
659.41	59741.05
659.61	60237.40
659.81	59822.97
660.00	59424.19
660.20	59717.29
660.40	59423.70
660.59	59557.72
660.79	59174.01
660.99	59572.87
661.19	59622.60
661.38	59548.05
661.58	58889.42
661.78	59360.54
661.97	58963.15
662.17	59681.09
662.37	58997.72
662.56	59078.57
662.76	59045.48
662.96	59198.50
663.15	59380.53
663.35	59262.40
663.55	59004.11
663.74	58621.79
663.94	59110.19
664.14	58577.07
664.33	58989.86
664.53	58721.90
664.73	59188.10
664.93	58370.71
665.12	59045.23
665.32	58676.35
665.52	58574.86
665.71	58395.29
665.91	58519.40
666.10	58318.04
666.30	58616.31
666.50	58211.63
666.69	58163.05
666.89	58555.93
667.09	58913.26
667.28	58352.77
667.48	58121.35
667.68	58192.13
667.87	58290.19
668.07	57736.66
668.27	58360.06
668.46	58305.59
668.66	57924.34
668.86	58444.60
669.05	57896.32
669.25	58183.61
669.44	57872.24
669.64	57838.32
669.84	57954.24
670.03	58375.63
670.23	57919.83
670.43	57750.34
670.62	57827.76
670.82	57644.01
671.01	58029.28
671.21	57429.55
671.41	57605.51
671.60	57864.78
671.80	58135.69
672.00	57793.92
672.19	58134.62
672.39	58052.05
672.58	57868.72
672.78	57648.68
672.98	58043.45
673.17	57653.27
673.37	56883.07
673.56	57242.12
673.76	57398.42
673.96	57621.98
674.15	57378.51
674.35	57392.85
674.54	57215.41
674.74	57290.12
674.94	57181.91
675.13	57333.21
675.33	56841.21
675.52	57308.47
675.72	57326.09
675.91	57156.35
676.11	57567.09
676.31	56869.31
676.50	57084.43
676.70	56859.89
676.89	56917.56
677.09	57109.33
677.28	57042.57
677.48	56408.92
677.68	56894.05
677.87	56479.37
678.07	56376.24
678.26	56560.15
678.46	56761.26
678.65	56547.04
678.85	56891.02
679.04	56306.93
679.24	56538.27
679.44	56273.92
679.63	56586.52
679.83	56309.56
680.02	56430.47
680.22	56040.21
680.41	56263.19
680.61	55993.92
680.80	55889.89
681.00	55953.37
681.19	55951.74
681.39	55775.86
681.59	55681.98
681.78	55423.20
681.98	56000.48
682.17	55270.50
682.37	55688.78
682.56	55387.56
682.76	55852.78
682.95	55484.31
683.15	55520.02
683.34	55234.37
683.54	55425.00
683.73	55611.94
683.93	55100.11
684.12	55426.06
684.32	55582.45
684.51	54900.55
684.71	55139.35
684.90	54872.37
685.10	54945.77
685.29	54718.94
685.49	55069.47
685.68	54989.76
685.88	54889.25
686.07	54575.75
686.27	55082.50
686.46	55034.41
686.66	54683.71
686.85	54985.18
687.05	54623.42
687.24	54516.76
687.44	54785.38
687.63	54588.77
687.83	54024.76
688.02	54594.91
688.22	54699.85
688.41	54352.68
688.61	54521.19
688.80	54620.31
689.00	54202.52
689.19	54180.57
689.39	54728.77
689.58	54502.51
689.77	54329.83
689.97	54391.84
690.16	53980.93
690.36	53546.76
690.55	53357.12
690.75	54158.94
690.94	53653.01
691.14	53803.42
691.33	53216.47
691.53	53723.79
691.72	53502.36
691.91	53614.92
692.11	53601.73
692.30	53703.72
692.50	53808.82
692.69	53262.34
692.89	53389.23
693.08	53163.71
693.28	53103.09
693.47	53263.08
693.66	53102.52
693.86	53060.90
694.05	52891.99
694.25	53031.17
694.44	53235.80
694.64	53035.92
694.83	53066.88
695.02	53033.63
695.22	53189.11
695.41	52571.36
695.61	52510.98
695.80	52478.30
695.99	52392.20
696.19	52435.70
696.38	52457.65
696.58	52021.52
696.77	52754.77
696.96	52507.54
697.16	52376.64
697.35	52272.60
697.55	52192.89
697.74	52004.64
697.93	52530.81
698.13	51956.07
698.32	52134.40
698.52	51843.67
698.71	51380.01
698.90	52106.80
699.10	51601.11
699.29	51648.63
699.49	52138.34
699.68	51727.84
699.87	51680.90
700.07	52113.51
700.26	51788.95
700.45	51659.19
700.65	51147.12
700.84	51639.37
701.04	51008.27
701.23	51287.28
701.42	51056.60
701.62	50942.49
701.81	51147.36
702.00	50968.78
702.20	50682.64
702.39	50948.47
702.58	51177.43
702.78	50887.93
702.97	50883.50
703.17	50964.03
703.36	50893.42
703.55	50628.82
703.75	50451.71
703.94	50632.75
704.13	50278.62
704.33	50134.85
704.52	50547.80
704.71	50435.00
704.91	50503.32
705.10	50324.16
705.29	50418.53
705.49	50445.16
705.68	50342.51
705.87	50387.98
706.07	49897.86
706.26	50379.21
706.45	49708.46
706.65	49519.56
706.84	50002.47
707.03	50179.00
707.23	49509.81
707.42	49257.50
707.61	49745.57
707.80	49310.91
708.00	49433.87
708.19	49377.02
708.38	49844.53
708.58	49059.34
708.77	49765.07
708.96	49036.97
709.16	48927.94
709.35	49811.84
709.54	49144.12
709.74	49018.87
709.93	48632.05
710.12	49365.96
710.31	49479.17
710.51	48938.43
710.70	48900.99
710.89	48970.70
711.09	48446.67
711.28	48500.00
711.47	48768.61
711.66	48674.65
711.86	48466.00
712.05	48446.42
712.24	48569.22
712.43	48136.85
712.63	47559.24
712.82	48277.18
713.01	48085.24
713.21	47664.92
713.40	47742.58
713.59	48226.96
713.78	47544.50
713.98	48023.39
714.17	47703.25
714.36	47796.48
714.55	47114.18
714.75	47272.03
714.94	47304.80
715.13	47579.47
715.32	47003.42
715.52	47281.29
715.71	46967.87
715.90	47005.22
716.09	46774.21
716.29	47130.72
716.48	47035.86
716.67	46408.28
716.86	46926.34
717.06	46849.58
717.25	46986.30
717.44	47037.75
717.63	46872.43
717.82	46283.44
718.02	46620.29
718.21	46730.39
718.40	46825.99
718.59	46511.83
718.79	46240.10
718.98	46133.20
719.17	46473.16
719.36	46471.52
719.55	46219.13
719.75	46106.90
719.94	46056.36
720.13	46362.90
720.32	46075.36
720.51	45776.69
720.71	45738.68
720.90	45256.42
721.09	45656.02
721.28	45332.69
721.47	45804.54
721.67	45650.21
721.86	45631.12
722.05	45524.87
722.24	45157.55
722.43	45668.23
722.63	45162.87
722.82	45202.27
723.01	45221.69
723.20	44802.59
723.39	44874.76
723.58	45017.55
723.78	44445.59
723.97	45099.14
724.16	44494.01
724.35	44715.60
724.54	44452.47
724.73	44787.93
724.93	44450.42
725.12	44732.96
725.31	43939.01
725.50	44310.02
725.69	44465.42
725.88	44109.07
726.08	43620.83
726.27	44182.55
726.46	43381.06
726.65	44305.02
726.84	43630.34
727.03	43743.14
727.23	44089.57
727.42	43697.92
727.61	43672.85
727.80	43376.14
727.99	43589.13
728.18	43554.64
728.37	43280.71
728.56	43067.64
728.76	42858.91
728.95	43090.57
729.14	42976.46
729.33	42891.51
729.52	42885.04
729.71	42838.59
729.90	42823.35
730.09	42490.76
730.29	42797.22
730.48	42291.29
730.67	42768.22
730.86	42295.96
731.05	42710.88
731.24	42337.08
731.43	42528.45
731.62	42187.91
731.81	42070.85
732.01	42638.63
732.20	42044.80
732.39	42527.71
732.58	42390.91
732.77	41697.95
732.96	42227.89
733.15	42140.73
733.34	41791.92
733.53	41948.13
733.72	42023.91
733.92	41978.03
734.11	41791.18
734.30	41837.13
734.49	42049.96
734.68	41675.59
734.87	41660.68
735.06	41555.83
735.25	41533.13
735.44	41150.33
735.63	41318.67
735.82	41318.83
736.01	40918.42
736.20	41012.87
736.40	41267.80
736.59	41096.43
736.78	41329.81
736.97	40909.40
737.16	41007.54
737.35	41112.89
737.54	41135.42
737.73	40751.55
737.92	40987.72
738.11	41134.03
738.30	40772.93
738.49	40567.80
738.68	40479.00
738.87	40639.65
739.06	40417.40
739.25	40568.29
739.44	40560.84
739.63	40381.85
739.82	40050.65
740.01	40410.19
740.20	40017.72
740.39	39986.43
740.59	39945.79
740.78	39951.20
740.97	39783.43
741.16	39541.77
741.35	39780.48
741.54	39563.32
741.73	39671.69
741.92	39614.68
742.11	39587.07
742.30	39631.23
742.49	39220.32
742.68	39561.19
742.87	39464.03
743.06	39012.08
743.25	39327.88
743.44	39031.17
743.63	39347.21
743.82	38951.87
744.01	38941.96
744.20	38608.72
744.39	38928.20
744.58	38703.17
744.77	38592.17
744.96	38193.47
745.15	38656.48
745.34	38415.63
745.53	38422.52
745.72	38231.89
745.91	38301.11
746.10	38009.97
746.29	38300.95
746.48	38319.79
746.67	38211.98
746.86	38135.80
747.04	38123.27
747.23	37956.07
747.42	38290.95
747.61	37860.39
747.80	38451.92
747.99	37710.64
748.18	38140.96
748.37	37922.07
748.56	37511.99
748.75	37715.15
748.94	37685.74
749.13	37580.80
749.32	37295.48
749.51	37435.15
749.70	37432.12
749.89	37280.16
750.08	37382.64
750.27	36851.15
750.46	37072.41
750.65	37466.52
750.84	36906.04
751.02	37188.49
751.21	36950.35
751.40	37048.25
751.59	37079.70
751.78	36861.55
751.97	36941.51
752.16	36733.02
752.35	37093.71
752.54	36575.41
752.73	36980.01
752.92	36474.65
753.11	36514.87
753.30	36610.14
753.49	36825.84
753.67	36575.82
753.86	36296.48
754.05	36551.74
754.24	36244.38
754.43	36204.81
754.62	36278.54
754.81	35886.64
755.00	35985.60
755.19	35997.64
755.38	35611.80
755.56	35991.17
755.75	36182.37
755.94	35667.75
756.13	35753.68
756.32	35788.34
756.51	35629.41
756.70	35823.15
756.89	35708.96
757.08	35552.16
757.26	35616.72
757.45	35579.36
757.64	35354.90
757.83	35707.89
758.02	35336.23
758.21	35323.36
758.40	35374.15
758.59	35418.64
758.77	35142.73
758.96	35193.52
759.15	35170.67
759.34	34832.92
759.53	34943.34
759.72	34931.63
759.91	34643.03
760.09	34772.79
760.28	34865.36
760.47	34401.78
760.66	34798.92
760.85	34353.77
761.04	34760.83
761.23	34582.74
761.41	34599.69
761.60	34711.76
761.79	34473.05
761.98	34165.28
762.17	34528.92
762.36	34096.80
762.54	34459.45
762.73	34325.10
762.92	34111.05
763.11	34463.79
763.30	34535.72
763.49	34385.23
763.67	34173.06
763.86	34212.87
764.05	34280.70
764.24	34135.54
764.43	34410.87
764.61	33917.89
764.80	33882.00
764.99	34140.05
765.18	33706.70
765.37	33869.06
765.55	33803.12
765.74	33555.64
765.93	33267.78
766.12	33567.60
766.31	33559.00
766.49	33500.75
766.68	33602.66
766.87	33347.16
767.06	33244.10
767.25	33400.98
767.43	33317.75
767.62	33117.21
767.81	33297.10
768.00	33046.92
768.19	32990.16
768.37	33094.85
768.56	33070.85
768.75	33183.73
768.94	33238.94
769.12	32903.49
769.31	32872.19
769.50	32830.91
769.69	32984.18
769.88	32435.57
770.06	32959.19
770.25	32541.32
770.44	32475.95
770.63	32759.64
770.81	32630.86
771.00	32468.01
771.19	32628.98
771.38	32496.51
771.56	32713.02
771.75	32016.22
771.94	32417.87
772.13	32388.22
772.31	32119.60
772.50	32460.71
772.69	32248.63
772.88	32548.53
773.06	32068.98
773.25	32271.32
773.44	32260.67
773.62	32142.05
773.81	32209.88
774.00	32043.67
774.19	32217.66
774.37	32013.03
774.56	32338.66
774.75	31840.51
774.94	32186.45
775.12	31935.29
775.31	32027.86
775.50	31906.70
775.68	31741.80
775.87	31703.05
776.06	31505.46
776.25	31739.01
776.43	31513.32
776.62	31879.75
776.81	31368.16
776.99	31563.29
777.18	31525.61
777.37	31195.56
777.55	31335.72
777.74	31364.40
777.93	31383.89
778.12	31228.16
778.30	31087.59
778.49	31131.50
778.68	31232.10
778.86	31142.56
779.05	31344.82
779.24	31254.79
779.42	31016.00
779.61	30961.27
779.80	31061.30
779.98	31151.32
780.17	31324.75
780.36	30898.61
780.54	31223.50
780.73	30507.28
780.92	31132.81
781.10	30781.30
781.29	30765.49
781.48	30603.94
781.66	30617.95
781.85	30749.02
782.04	30533.49
782.22	30711.26
782.41	30512.69
782.60	30658.17
782.78	30629.42
782.97	30640.97
783.16	30190.01
783.34	30256.94
783.53	30364.90
783.71	30180.51
783.90	30255.71
784.09	30137.58
784.27	30062.79
784.46	30008.97
784.65	30203.85
784.83	29932.37
785.02	29973.01
785.20	30333.20
785.39	29706.20
785.58	30209.83
785.76	30103.01
785.95	30087.86
786.14	30064.35
786.32	30082.12
786.51	29977.76
786.69	30240.14
786.88	29986.44
787.07	30090.40
787.25	30148.15
787.44	30023.96
787.62	30012.57
787.81	30140.20
788.00	30145.69
788.18	29827.68
788.37	29764.93
788.55	30241.62
788.74	29960.55
788.93	30010.61
789.11	30173.54
789.30	30016.59
789.48	29781.81
789.67	30083.10
789.86	29956.05
790.04	30023.47
790.23	29967.35
790.41	29850.95
790.60	30004.22
790.78	30071.23
790.97	29704.72
791.16	29949.09
791.34	30245.80
791.53	29721.43
791.71	30165.60
791.90	29801.96
792.08	29871.18
792.27	29849.64
792.46	29806.06
792.64	29840.95
792.83	29746.34
793.01	29803.93
793.20	29806.55
793.38	29766.32
793.57	29802.29
793.75	29859.22
793.94	29900.92
794.12	30153.15
794.31	29859.30
794.50	29984.80
794.68	30144.87
794.87	29939.50
795.05	30216.63
795.24	29860.94
795.42	29851.93
795.61	30330.74
795.79	30300.68
795.98	29842.35
796.16	30222.45
796.35	30216.80
796.53	29897.56
796.72	30150.77
796.90	30199.10
797.09	30051.89
797.27	30047.47
797.46	29978.99
797.64	30169.36
797.83	30006.59
798.01	30141.10
798.20	30291.51
798.38	30152.57
798.57	30303.71
798.75	30283.97
798.94	29654.67
799.12	30583.55
799.31	30175.59
799.49	30135.20
799.68	30017.08
799.86	30063.36
800.05	30012.65
800.23	29998.81
800.42	29871.18
800.60	30135.12
800.79	29748.06
800.97	29916.56
801.16	30147.41
801.34	29715.94
801.53	29785.08
801.71	29994.55
801.90	29735.93
802.08	30052.63
802.27	29906.82
802.45	29744.70
802.64	29942.20
802.82	29996.02
803.00	29659.83
803.19	29838.74
803.37	30096.21
803.56	29784.84
803.74	29749.04
803.93	29843.66
804.11	29696.86
804.30	29547.52
804.48	29665.56
804.67	29756.25
804.85	29634.35
805.03	29777.79
805.22	29486.65
805.40	29417.19
805.59	29600.93
805.77	29691.94
805.96	29355.58
806.14	29437.18
806.32	29565.71
806.51	29779.02
806.69	29439.14
806.88	29444.47
807.06	29344.12
807.25	29452.00
807.43	29463.96
807.61	29461.59
807.80	29191.83
807.98	29418.25
808.17	29120.80
808.35	29078.37
808.53	29346.90
808.72	29199.53
808.90	29137.02
809.09	29244.01
809.27	29305.53
809.45	28982.94
809.64	29197.40
809.82	28938.13
810.01	29002.19
810.19	29026.84
810.37	28796.98
810.56	28698.35
810.74	28927.15
810.93	28576.05
811.11	28757.66
811.29	28536.81
811.48	28692.53
811.66	28641.58
811.84	28531.15
812.03	28474.30
812.21	28458.08
812.40	28625.93
812.58	28681.31
812.76	28399.51
812.95	28638.14
813.13	28226.74
813.31	28354.70
813.50	28429.82
813.68	28362.48
813.86	28470.29
814.05	28574.65
814.23	28250.83
814.42	28416.55
814.60	28258.61
814.78	28468.16
814.97	28239.44
815.15	28247.55
815.33	28318.90
815.52	28100.59
815.70	28209.62
815.88	28254.68
816.07	27991.15
816.25	27989.02
816.43	28079.37
816.62	27750.71
816.80	27996.14
816.98	27813.79
817.17	27762.51
817.35	27801.67
817.53	27785.78
817.72	27868.35
817.90	27572.13
818.08	27603.51
818.26	27701.40
818.45	27453.27
818.63	27558.12
818.81	27555.42
819.00	27211.28
819.18	27562.96
819.36	27525.68
819.55	27500.37
819.73	27320.97
819.91	27517.98
820.09	27415.91
820.28	27561.97
820.46	27312.69
820.64	27665.35
820.83	27232.82
821.01	27294.18
821.19	27120.68
821.38	27264.03
821.56	27103.31
821.74	27224.39
821.92	26990.43
822.11	27245.44
822.29	26848.87
822.47	26924.65
822.65	27021.06
822.84	27095.45
823.02	26797.92
823.20	27170.24
823.39	26799.64
823.57	26877.79
823.75	26896.71
823.93	26656.53
824.12	26857.64
824.30	26638.99
824.48	26667.17
824.66	26862.71
824.85	26362.76
825.03	26704.53
825.21	26681.84
825.39	26542.41
825.58	26550.19
825.76	26493.83
825.94	26513.82
826.12	26354.16
826.31	26236.45
826.49	26324.34
826.67	26369.40
826.85	26208.43
827.03	26306.98
827.22	26393.48
827.40	26204.58
827.58	26128.39
827.76	26242.92
827.95	26105.62
828.13	26098.00
828.31	26089.16
828.49	26148.63
828.67	25954.97
828.86	25878.95
829.04	25990.85
829.22	25832.09
829.40	25722.73
829.58	25663.51
829.77	25715.20
829.95	25697.99
830.13	25645.24
830.31	25626.31
830.49	25684.56
830.68	25724.95
830.86	25614.35
831.04	25507.70
831.22	25577.00
831.40	25443.23
831.59	25637.78
831.77	25288.48
831.95	25565.20
832.13	25204.35
832.31	25342.47
832.50	25230.57
832.68	25094.01
832.86	25174.78
833.04	25294.87
833.22	24929.02
833.40	25238.59
833.59	24998.65
833.77	25207.30
833.95	24591.52
834.13	25343.45
834.31	24988.09
834.49	24855.95
834.67	24918.45
834.86	24952.12
835.04	24891.42
835.22	24902.97
835.40	24824.74
835.58	24809.09
835.76	24822.36
835.95	24781.00
836.13	24725.29
836.31	24543.43
836.49	24836.70
836.67	24782.47
836.85	24657.30
837.03	24551.79
837.21	24574.97
837.40	24361.41
837.58	24186.35
837.76	24341.26
837.94	24313.08
838.12	24468.23
838.30	24263.68
838.48	24294.97
838.66	24170.29
838.85	24173.49
839.03	24244.10
839.21	24168.24
839.39	24127.12
839.57	24196.42
839.75	24013.01
839.93	24094.93
840.11	24060.44
840.29	23952.47
840.47	23969.43
840.66	23928.30
840.84	23921.59
841.02	23735.96
841.20	23791.74
841.38	23703.85
841.56	23650.03
841.74	23990.15
841.92	23681.89
842.10	23644.29
842.28	23808.29
842.46	23539.93
842.65	23587.93
842.83	23811.40
843.01	23849.42
843.19	23599.56
843.37	23713.84
843.55	23549.51
843.73	23613.65
843.91	23627.25
844.09	23412.21
844.27	23566.47
844.45	23318.83
844.63	23307.28
844.81	23304.16
844.99	23351.92
845.17	23170.15
845.35	23386.98
845.54	23232.08
845.72	23165.64
845.90	23127.30
846.08	23120.75
846.26	22842.88
846.44	23078.89
846.62	22791.27
846.80	22778.82
846.98	22802.25
847.16	22781.11
847.34	22853.94
847.52	22737.78
847.70	22666.43
847.88	22885.72
848.06	22721.31
848.24	22805.52
848.42	22785.45
848.60	22573.45
848.78	22699.03
848.96	22598.11
849.14	22615.47
849.32	22685.02
849.50	22446.31
849.68	22544.94
849.86	22493.25
850.04	22403.22
850.22	22314.18
850.40	22167.79
850.58	22353.33
850.76	22679.37
850.94	22007.06
851.12	22285.50
851.30	22118.31
851.48	22346.21
851.66	22092.83
851.84	22076.45
852.02	22024.92
852.20	22141.82
852.38	21899.01
852.56	21942.67
852.74	21944.39
852.92	21805.71
853.10	21756.72
853.28	21893.52
853.46	21463.29
853.64	21745.09
853.82	21598.29
854.00	21649.00
854.18	21468.20
854.36	21437.40
854.54	21567.98
854.72	21396.19
854.90	21339.34
855.07	21475.16
855.25	21445.43
855.43	21534.96
855.61	21460.09
855.79	21324.84
855.97	21393.57
856.15	21457.31
856.33	21336.72
856.51	21433.55
856.69	21250.22
856.87	21449.03
857.05	21257.26
857.23	21320.42
857.41	21151.75
857.59	21147.98
857.77	21188.94
857.94	21132.99
858.12	21222.69
858.30	21087.36
858.48	21052.55
858.66	20992.25
858.84	21149.54
859.02	20884.78
859.20	20782.87
859.38	21074.42
859.56	20913.37
859.74	20843.24
859.92	20830.96
860.09	20691.04
860.27	20794.50
860.45	20543.75
860.63	20540.96
860.81	20657.04
860.99	20503.44
861.17	20325.43
861.35	20005.62
861.53	19864.15
861.70	19846.37
861.88	20215.50
862.06	20204.93
862.24	19912.97
862.42	19933.29
862.60	20222.71
862.78	20170.44
862.96	20197.72
863.14	20070.42
863.31	20132.43
863.49	20065.42
863.67	19959.26
863.85	19978.67
864.03	20087.95
864.21	20090.66
864.39	20031.92
864.56	19890.36
864.74	20000.46
864.92	19874.14
865.10	19768.55
865.28	19825.48
865.46	19997.68
865.64	19629.86
865.81	19845.14
865.99	19563.67
866.17	19813.44
866.35	19685.65
866.53	19667.95
866.71	19676.64
866.88	19680.49
867.06	19471.84
867.24	19520.26
867.42	19376.00
867.60	19436.45
867.78	19324.22
867.95	19459.06
868.13	19211.91
868.31	19366.58
868.49	19246.32
868.67	19175.13
868.84	19165.71
869.02	19279.99
869.20	18929.95
869.38	19126.72
869.56	18969.52
869.73	18896.53
869.91	18969.27
870.09	18962.63
870.27	18880.55
870.45	18884.98
870.62	18772.17
870.80	18909.06
870.98	18852.62
871.16	18862.37
871.34	18741.29
871.51	18781.84
871.69	18617.76
871.87	18680.26
872.05	18599.41
872.23	18610.06
872.40	18424.26
872.58	18506.67
872.76	18387.97
872.94	18327.76
873.11	18369.54
873.29	18236.75
873.47	18346.52
873.65	18258.38
873.83	18233.64
874.00	18224.96
874.18	18382.16
874.36	18252.07
874.54	18346.77
874.71	18160.40
874.89	18059.56
875.07	18105.44
875.25	18017.21
875.42	18073.90
875.60	18065.54
875.78	18092.00
875.96	17893.27
876.13	18092.90
876.31	17831.50
876.49	17902.36
876.66	17725.99
876.84	18018.36
877.02	17781.61
877.20	17842.23
877.37	17822.33
877.55	17764.49
877.73	17795.05
877.91	17675.77
878.08	17849.03
878.26	17781.69
878.44	17758.43
878.61	17773.17
878.79	17624.66
878.97	17634.32
879.15	17760.31
879.32	17696.01
879.50	17645.87
879.68	17800.04
879.85	17569.03
880.03	17747.70
880.21	17606.31
880.38	17729.76
880.56	17538.23
880.74	17714.36
880.92	17440.67
881.09	17545.77
881.27	17539.71
881.45	17555.11
881.62	17444.11
881.80	17399.30
881.98	17372.84
882.15	17447.96
882.33	17323.28
882.51	17368.90
882.68	17203.35
882.86	17414.53
883.04	17172.55
883.21	17287.89
883.39	17453.85
883.57	17274.78
883.74	17300.58
883.92	17336.06
884.10	17298.70
884.27	17295.34
884.45	17206.95
884.63	17381.93
884.80	17330.16
884.98	17347.61
885.16	17333.35
885.33	17321.15
885.51	17347.20
885.69	17295.18
885.86	17236.61
886.04	17263.64
886.21	17083.17
886.39	17263.56
886.57	16954.07
886.74	17240.95
886.92	17133.72
887.10	17117.41
887.27	17071.21
887.45	17161.00
887.62	17123.56
887.80	17091.20
887.98	17248.81
888.15	17229.15
888.33	17161.65
888.51	17334.66
888.68	17195.48
888.86	17212.36
889.03	17092.59
889.21	17195.89
889.39	17251.35
889.56	17275.35
889.74	17231.61
889.91	17286.33
890.09	17229.81
890.27	17249.39
890.44	17275.76
890.62	17276.34
890.79	17322.46
890.97	17377.59
891.14	17273.88
891.32	17263.31
891.50	17159.77
891.67	17246.03
891.85	17217.03
892.02	17156.33
892.20	17256.35
892.38	17145.43
892.55	17038.69
892.73	17162.55
892.90	17036.56
893.08	17088.33
893.25	17071.70
893.43	17273.14
893.60	17008.79
893.78	17170.42
893.96	17062.69
894.13	17172.22
894.31	17231.04
894.48	17161.65
894.66	17237.83
894.83	17255.45
895.01	17248.32
895.18	17230.30
895.36	17154.36
895.53	17238.82
895.71	17162.22
895.89	17101.85
896.06	17020.91
896.24	17120.53
896.41	17044.51
896.59	17075.88
896.76	16867.64
896.94	17003.22
897.11	16981.51
897.29	17030.58
897.46	16875.67
897.64	16937.44
897.81	16909.42
897.99	16697.09
898.16	17021.24
898.34	16938.83
898.51	16946.78
898.69	16840.37
898.86	16899.84
899.04	17005.68
899.21	16815.13
899.39	16879.19
899.56	16751.48
899.74	16941.04
899.91	16794.00
900.09	16664.49
900.26	16825.62
900.44	16630.90
900.61	16688.24
900.79	16823.33
900.96	16678.66
901.14	16647.12
901.31	16560.12
901.49	16586.74
901.66	16593.05
901.84	16542.84
902.01	16463.95
902.19	16480.99
902.36	16350.16
902.54	16474.19
902.71	16363.43
902.88	16496.88
903.06	16261.53
903.23	16540.87
903.41	16329.60
903.58	16279.80
903.76	16153.72
903.93	16314.61
904.11	16383.67
904.28	16235.72
904.45	16231.22
904.63	16227.12
904.80	16055.99
904.98	16234.33
905.15	16042.39
905.33	16173.38
905.50	16014.46
905.68	15963.10
905.85	15986.53
906.02	15935.82
906.20	16089.33
906.37	15833.50
906.55	15777.31
906.72	15947.04
906.90	15681.54
907.07	15593.56
907.24	15633.70
907.42	15531.06
907.59	15544.57
907.77	15455.53
907.94	15486.25
908.11	15457.82
908.29	15453.15
908.46	15411.62
908.64	15300.62
908.81	15311.11
908.98	15195.85
909.16	15315.94
909.33	15177.25
909.51	15104.83
909.68	15069.69
909.85	15050.77
910.03	15069.86
910.20	14982.28
910.37	14953.20
910.55	14931.25
910.72	14886.85
910.90	14753.16
911.07	14800.18
911.24	14706.79
911.42	14832.05
911.59	14606.69
911.76	14642.57
911.94	14498.23
912.11	14491.51
912.29	14518.21
912.46	14425.15
912.63	14437.52
912.81	14354.13
912.98	14410.41
913.15	14286.79
913.33	14384.36
913.50	14333.16
913.67	14277.29
913.85	14240.35
914.02	14313.91
914.19	14225.76
914.37	14194.39
914.54	14219.37
914.71	14120.50
914.89	14100.35
915.06	14072.33
915.23	13980.01
915.41	13923.73
915.58	13858.52
915.75	13803.23
915.93	13818.71
916.10	13724.34
916.27	13688.30
916.45	13724.75
916.62	13580.74
916.79	13698.45
916.97	13593.60
917.14	13573.36
917.31	13480.14
917.49	13510.20
917.66	13512.50
917.83	13444.59
918.00	13383.64
918.18	13305.98
918.35	13261.33
918.52	13318.76
918.70	13144.35
918.87	13161.31
919.04	13161.64
919.21	13107.00
919.39	12989.20
919.56	13064.57
919.73	12965.94
919.91	12961.35
920.08	12953.57
920.25	12847.73
920.42	13017.95
920.60	12845.19
920.77	12777.44
920.94	12822.25
921.11	12641.46
921.29	12728.86
921.46	12512.35
921.63	12673.32
921.81	12541.02
921.98	12541.35
922.15	12528.08
922.32	12574.69
922.50	12493.18
922.67	12438.30
922.84	12380.05
923.01	12353.02
923.19	12285.76
923.36	12342.78
923.53	12141.18
923.70	12225.88
923.87	12144.05
924.05	12165.67
924.22	12071.47
924.39	12120.62
924.56	11960.14
924.74	11998.23
924.91	11992.33
925.08	11912.71
925.25	11918.44
925.43	11892.55
925.60	11824.40
925.77	11897.72
925.94	11815.55
926.11	11802.28
926.29	11741.74
926.46	11680.63
926.63	11679.48
926.80	11688.90
926.97	11587.08
927.15	11596.99
927.32	11492.55
927.49	11438.40
927.66	11456.99
927.83	11440.69
928.01	11337.47
928.18	11368.52
928.35	11255.55
928.52	11330.18
928.69	11159.14
928.87	11174.13
929.04	11155.53
929.21	11185.68
929.38	11082.62
929.55	11154.63
929.72	11010.37
929.90	11041.66
930.07	11014.47
930.24	10918.21
930.41	10884.30
930.58	10852.02
930.75	10891.26
930.93	10838.59
931.10	10793.70
931.27	10710.14
931.44	10705.39
931.61	10644.11
931.78	10704.49
931.95	10611.92
932.13	10530.00
932.30	10640.84
932.47	10487.40
932.64	10551.46
932.81	10552.28
932.98	10477.41
933.15	10479.95
933.33	10395.08
933.50	10453.32
933.67	10351.25
933.84	10377.22
934.01	10372.47
934.18	10320.53
934.35	10327.25
934.52	10301.53
934.70	10342.73
934.87	10250.98
935.04	10216.01
935.21	10210.84
935.38	10169.39
935.55	10073.47
935.72	10166.53
935.89	10033.33
936.06	10074.61
936.24	9947.39
936.41	10112.71
936.58	9984.18
936.75	9979.01
936.92	9964.35
937.09	9938.46
937.26	9858.27
937.43	9873.59
937.60	9859.41
937.77	9806.74
937.94	9823.61
938.12	9822.55
938.29	9739.81
938.46	9764.47
938.63	9639.63
938.80	9704.26
938.97	9613.49
939.14	9612.35
939.31	9581.71
939.48	9596.86
939.65	9491.52
939.82	9468.01
939.99	9465.14
940.16	9448.10
940.33	9438.35
940.50	9396.41
940.67	9395.67
940.85	9387.23
941.02	9326.94
941.19	9351.03
941.36	9294.75
941.53	9317.19
941.70	9294.01
941.87	9222.41
942.04	9236.91
942.21	9218.64
942.38	9213.32
942.55	9116.57
942.72	9126.32
942.89	9123.21
943.06	9058.41
943.23	9041.95
943.40	8987.39
943.57	9007.46
943.74	8991.57
943.91	8976.82
944.08	8939.14
944.25	8942.00
944.42	8868.52
944.59	8815.11
944.76	8898.83
944.93	8868.77
945.10	8809.79
945.27	8802.25
945.44	8700.75
945.61	8743.11
945.78	8693.55
945.95	8660.29
946.12	8623.34
946.29	8641.85
946.46	8590.41
946.63	8560.18
946.80	8585.74
946.97	8538.72
947.14	8506.77
947.31	8545.93
947.48	8501.94
947.65	8462.78
947.82	8461.22
947.99	8537.00
948.16	8396.84
948.33	8483.34
948.50	8358.74
948.67	8386.60
948.84	8358.74
949.01	8296.65
949.18	8305.00
949.35	8327.20
949.52	8212.44
949.68	8223.66
949.85	8227.59
950.02	8214.40
950.19	8181.96
950.36	8150.34
950.53	8167.38
950.70	8098.57
950.87	8105.70
951.04	8156.65
951.21	8086.77
951.38	8028.12
951.55	8077.35
951.72	8062.77
951.89	8024.35
952.06	8005.76
952.23	8007.23
952.39	7954.72
952.56	7923.10
952.73	7946.94
952.90	7862.89
953.07	7922.28
953.24	7820.95
953.41	7844.79
953.58	7754.59
953.75	7848.31
953.92	7745.83
954.09	7696.35
954.25	7666.94
954.42	7673.66
954.59	7634.75
954.76	7615.25
954.93	7600.75
955.10	7594.61
955.27	7560.12
955.44	7562.82
955.61	7570.44
955.77	7599.11
955.94	7536.03
956.11	7563.72
956.28	7553.32
956.45	7539.97
956.62	7542.34
956.79	7565.20
956.96	7525.38
957.12	7508.75
957.29	7462.88
957.46	7487.05
957.63	7413.48
957.80	7401.77
957.97	7374.33
958.14	7397.18
958.30	7290.11
958.47	7310.02
958.64	7298.63
958.81	7317.31
958.98	7237.77
959.15	7238.42
959.32	7290.52
959.48	7222.28
959.65	7153.39
959.82	7199.84
959.99	7133.24
960.16	7171.82
960.33	7142.09
960.49	7118.49
960.66	7083.19
960.83	7121.69
961.00	7090.48
961.17	7062.38
961.33	7051.65
961.50	7050.26
961.67	7009.62
961.84	7044.11
962.01	6986.44
962.18	7011.67
962.34	6949.90
962.51	6959.16
962.68	6909.52
962.85	6960.72
963.02	6878.80
963.18	6879.62
963.35	6879.05
963.52	6845.21
963.69	6856.52
963.86	6843.41
964.02	6780.01
964.19	6818.10
964.36	6772.06
964.53	6772.14
964.69	6695.71
964.86	6769.27
965.03	6651.39
965.20	6732.00
965.37	6613.30
965.53	6644.43
965.70	6623.38
965.87	6618.63
966.04	6603.96
966.20	6593.72
966.37	6563.08
966.54	6519.91
966.71	6589.79
966.87	6527.70
967.04	6529.33
967.21	6526.30
967.38	6495.83
967.54	6510.49
967.71	6486.82
967.88	6477.07
968.05	6446.92
968.21	6418.99
968.38	6398.18
968.55	6389.17
968.72	6362.14
968.88	6311.43
969.05	6351.65
969.22	6325.03
969.39	6317.57
969.55	6337.81
969.72	6261.87
969.89	6285.13
970.05	6283.17
970.22	6278.74
970.39	6241.06
970.56	6267.28
970.72	6249.01
970.89	6245.24
971.06	6217.88
971.22	6203.05
971.39	6201.25
971.56	6225.74
971.73	6125.23
971.89	6193.22
972.06	6146.61
972.23	6153.33
972.39	6098.36
972.56	6092.54
972.73	6073.46
972.89	6096.48
973.06	6081.89
973.23	6078.29
973.39	6034.38
973.56	6049.37
973.73	5982.94
973.89	6020.21
974.06	5981.38
974.23	6015.95
974.39	5959.67
974.56	5971.30
974.73	5925.76
974.89	5901.02
975.06	5928.05
975.23	5961.39
975.39	5885.53
975.56	5887.01
975.73	5882.75
975.89	5875.13
976.06	5846.38
976.23	5825.73
976.39	5820.41
976.56	5807.63
976.73	5799.85
976.89	5790.43
977.06	5755.45
977.23	5751.60
977.39	5745.94
977.56	5759.95
977.72	5727.10
977.89	5740.13
978.06	5709.98
978.22	5720.30
978.39	5672.96
978.56	5678.44
978.72	5644.04
978.89	5638.06
979.05	5629.70
979.22	5639.86
979.39	5616.35
979.55	5604.64
979.72	5583.42
979.88	5608.16
980.05	5572.44
980.22	5600.54
980.38	5558.02
980.55	5539.02
980.71	5523.21
980.88	5513.87
981.05	5529.43
981.21	5501.09
981.38	5520.75
981.54	5502.24
981.71	5476.76
981.88	5464.72
982.04	5451.69
982.21	5453.74
982.37	5419.83
982.54	5431.70
982.70	5410.65
982.87	5467.34
983.04	5372.48
983.20	5444.81
983.37	5381.16
983.53	5393.86
983.70	5369.69
983.86	5355.60
984.03	5352.90
984.20	5350.44
984.36	5344.71
984.53	5314.32
984.69	5284.99
984.86	5282.94
985.02	5280.48
985.19	5281.63
985.35	5263.36
985.52	5248.53
985.68	5211.10
985.85	5214.70
986.02	5213.47
986.18	5209.87
986.35	5202.50
986.51	5205.77
986.68	5187.18
986.84	5159.98
987.01	5149.90
987.17	5189.47
987.34	5150.15
987.50	5122.05
987.67	5081.91
987.83	5140.48
988.00	5101.16
988.16	5095.76
988.33	5088.38
988.49	5093.22
988.66	5052.50
988.82	5060.37
988.99	5044.31
989.15	5060.45
989.32	5017.44
989.48	5028.83
989.65	4994.09
989.81	4985.33
989.98	4970.58
990.14	4977.71
990.31	4975.17
990.47	4935.85
990.64	4959.03
990.80	4938.06
990.97	4887.76
991.13	4950.51
991.30	4920.12
991.46	4886.62
991.63	4890.14
991.79	4895.05
991.95	4831.08
992.12	4884.41
992.28	4852.05
992.45	4863.02
992.61	4849.18
992.78	4821.66
992.94	4796.34
993.11	4832.14
993.27	4795.36
993.44	4774.22
993.60	4785.61
993.76	4803.22
993.93	4788.15
994.09	4800.11
994.26	4757.84
994.42	4753.01
994.59	4763.66
994.75	4754.73
994.91	4730.40
995.08	4715.41
995.24	4695.66
995.41	4720.65
995.57	4693.94
995.74	4685.75
995.90	4657.65
996.06	4682.64
996.23	4657.41
996.39	4661.42
996.56	4613.99
996.72	4649.71
996.88	4651.92
997.05	4650.04
997.21	4614.81
997.38	4640.53
997.54	4579.75
997.70	4608.18
997.87	4606.95
998.03	4617.35
998.20	4573.93
998.36	4573.69
998.52	4564.68
998.69	4622.76
998.85	4550.50
999.02	4568.53
999.18	4533.38
999.34	4542.48
999.51	4538.87
999.67	4551.90
999.83	4509.95
1000.00	4526.34
1000.16	4486.53
1000.33	4483.41
1000.49	4480.79
1000.65	4497.67
1000.82	4473.58
1000.98	4461.70
1001.14	4446.22
1001.31	4469.90
1001.47	4465.23
1001.63	4461.21
1001.80	4427.05
1001.96	4405.26
1002.12	4422.38
1002.29	4415.42
1002.45	4404.53
1002.61	4383.72
1002.78	4392.07
1002.94	4375.77
1003.10	4348.57
1003.27	4361.35
1003.43	4342.92
1003.59	4354.23
1003.76	4333.01
1003.92	4361.85
1004.08	4326.29
1004.25	4363.65
1004.41	4323.18
1004.57	4334.89
1004.74	4294.51
1004.90	4349.64
1005.06	4319.49
1005.23	4319.66
1005.39	4307.53
1005.55	4324.16
1005.71	4300.90
1005.88	4289.27
1006.04	4288.69
1006.20	4276.98
1006.37	4245.11
1006.53	4237.58
1006.69	4247.90
1006.85	4277.39
1007.02	4215.13
1007.18	4225.94
1007.34	4221.11
1007.51	4224.14
1007.67	4209.07
1007.83	4197.52
1007.99	4179.66
1008.16	4191.70
1008.32	4168.52
1008.48	4197.60
1008.64	4170.16
1008.81	4191.70
1008.97	4165.57
1009.13	4170.57
1009.29	4160.74
1009.46	4148.45
1009.62	4157.13
1009.78	4117.73
1009.95	4139.93
1010.11	4140.34
1010.27	4110.76
1010.43	4106.10
1010.59	4112.16
1010.76	4099.21
1010.92	4092.25
1011.08	4099.05
1011.24	4063.01
1011.41	4095.28
1011.57	4062.60
1011.73	4077.10
1011.89	4022.87
1012.06	4074.07
1012.22	4030.65
1012.38	4020.16
1012.54	4028.03
1012.70	4039.82
1012.87	3993.54
1013.03	4033.11
1013.19	4010.25
1013.35	4030.98
1013.51	3962.41
1013.68	4019.51
1013.84	3969.70
1014.00	3981.99
1014.16	3965.52
1014.32	3972.49
1014.49	3947.58
1014.65	4005.17
1014.81	3936.36
1014.97	3965.28
1015.13	3952.01
1015.30	3961.10
1015.46	3955.69
1015.62	3948.32
1015.78	3924.65
1015.94	3938.90
1016.10	3907.03
1016.27	3923.42
1016.43	3915.80
1016.59	3920.63
1016.75	3914.65
1016.91	3912.19
1017.07	3893.35
1017.24	3887.95
1017.40	3870.17
1017.56	3890.57
1017.72	3851.74
1017.88	3883.11
1018.04	3855.75
1018.21	3895.89
1018.37	3850.59
1018.53	3853.62
1018.69	3850.26
1018.85	3842.81
1019.01	3833.88
1019.17	3837.65
1019.34	3821.92
1019.50	3829.13
1019.66	3811.35
1019.82	3807.01
1019.98	3814.14
1020.14	3823.64
1020.30	3809.80
1020.46	3812.50
1020.63	3804.55
1020.79	3804.96
1020.95	3801.60
1021.11	3796.11
1021.27	3782.19
1021.43	3784.48
1021.59	3783.25
1021.75	3758.84
1021.91	3740.66
1022.07	3758.10
1022.24	3759.01
1022.40	3741.97
1022.56	3752.78
1022.72	3752.70
1022.88	3725.26
1023.04	3745.49
1023.20	3719.85
1023.36	3719.44
1023.52	3723.78
1023.68	3717.47
1023.84	3698.30
1024.01	3724.19
1024.17	3701.17
1024.33	3700.68
1024.49	3704.61
1024.65	3701.01
1024.81	3688.15
1024.97	3700.35
1025.13	3699.70
1025.29	3690.19
1025.45	3642.19
1025.61	3689.05
1025.77	3673.73
1025.93	3668.49
1026.09	3656.93
1026.25	3661.69
1026.41	3657.34
1026.57	3662.51
1026.73	3665.29
1026.90	3650.38
1027.06	3659.23
1027.22	3649.73
1027.38	3649.64
1027.54	3657.10
1027.70	3644.48
1027.86	3648.42
1028.02	3652.18
1028.18	3640.31
1028.34	3624.50
1028.50	3646.86
1028.66	3620.32
1028.82	3648.58
1028.98	3627.53
1029.14	3600.82
1029.30	3606.47
1029.46	3628.75
1029.62	3610.16
1029.78	3600.41
1029.94	3600.33
1030.10	3606.23
1030.26	3558.06
1030.42	3586.98
1030.58	3583.95
1030.74	3580.18
1030.90	3561.91
1031.06	3581.65
1031.22	3563.30
1031.38	3574.03
1031.54	3553.80
1031.70	3567.97
1031.86	3563.63
1032.02	3555.36
1032.18	3546.75
1032.34	3563.96
1032.50	3532.50
1032.66	3559.37
1032.82	3540.86
1032.98	3543.40
1033.14	3533.16
1033.30	3558.06
1033.45	3523.74
1033.61	3549.87
1033.77	3512.43
1033.93	3535.70
1034.09	3507.76
1034.25	3527.26
1034.41	3511.86
1034.57	3510.71
1034.73	3529.55
1034.89	3511.20
1035.05	3498.26
1035.21	3525.05
1035.37	3490.48
1035.53	3508.83
1035.69	3504.73
1035.85	3508.58
1036.01	3482.45
1036.16	3508.42
1036.32	3492.20
1036.48	3486.05
1036.64	3489.57
1036.80	3490.23
1036.96	3465.65
1037.12	3486.95
1037.28	3480.32
1037.44	3470.24
1037.60	3484.33
1037.76	3464.92
1037.91	3477.53
1038.07	3471.88
1038.23	3460.90
1038.39	3458.28
1038.55	3477.78
1038.71	3467.21
1038.87	3448.37
1039.03	3475.24
1039.19	3453.86
1039.35	3467.05
1039.50	3452.06
1039.66	3479.83
1039.82	3431.25
1039.98	3449.76
1040.14	3428.14
1040.30	3449.11
1040.46	3427.89
1040.62	3418.14
1040.77	3432.64
1040.93	3434.85
1041.09	3423.22
1041.25	3414.05
1041.41	3423.14
1041.57	3420.76
1041.73	3420.76
1041.88	3420.76

