SpectraSuite Data File
++++++++++++++++++++++++++++++++++++
Date: Tue Sep 20 12:12:27 EDT 2022
User: Laboratoire
Dark Spectrum Present: No
Reference Spectrum Present: No
Number of Sampled Component Spectra: 1
Spectrometers: FLMT00174
Integration Time (usec): 15000 (FLMT00174)
Spectra Averaged: 25 (FLMT00174)
Boxcar Smoothing: 0 (FLMT00174)
Correct for Electrical Dark: No (FLMT00174)
Strobe/Lamp Enabled: No (FLMT00174)
Correct for Detector Non-linearity: No (FLMT00174)
Correct for Stray Light: No (FLMT00174)
Number of Pixels in Processed Spectrum: 3648
>>>>>Begin Processed Spectral Data<<<<<
345.74	3160.83
345.96	3160.83
346.18	3160.83
346.39	3183.44
346.61	3212.53
346.83	3225.06
347.05	3211.62
347.27	3225.71
347.49	3230.06
347.71	3236.45
347.93	3233.50
348.15	3239.72
348.36	3214.49
348.58	3221.05
348.80	3223.91
349.02	3224.73
349.24	3214.08
349.46	3306.90
349.68	3334.42
349.90	3334.34
350.11	3323.20
350.33	3330.90
350.55	3309.44
350.77	3327.38
350.99	3321.72
351.21	3324.92
351.43	3313.29
351.65	3323.61
351.86	3316.89
352.08	3345.32
352.30	3303.87
352.52	3325.98
352.74	3319.10
352.96	3306.08
353.18	3327.87
353.39	3330.98
353.61	3318.94
353.83	3342.69
354.05	3337.94
354.27	3328.77
354.49	3321.23
354.70	3316.07
354.92	3333.36
355.14	3326.97
355.36	3330.00
355.58	3322.05
355.80	3334.42
356.02	3319.27
356.23	3329.51
356.45	3332.05
356.67	3331.96
356.89	3353.67
357.11	3335.65
357.33	3339.91
357.54	3315.09
357.76	3319.92
357.98	3321.23
358.20	3337.78
358.42	3330.73
358.63	3330.73
358.85	3338.43
359.07	3328.85
359.29	3331.80
359.51	3325.49
359.73	3317.87
359.94	3342.61
360.16	3323.28
360.38	3335.40
360.60	3314.68
360.82	3339.42
361.03	3336.63
361.25	3340.24
361.47	3335.98
361.69	3338.27
361.91	3330.32
362.12	3333.52
362.34	3328.60
362.56	3355.06
362.78	3327.05
363.00	3344.99
363.21	3324.92
363.43	3346.22
363.65	3339.50
363.87	3330.90
364.09	3331.39
364.30	3310.17
364.52	3328.19
364.74	3338.84
364.96	3349.08
365.17	3345.40
365.39	3339.42
365.61	3334.50
365.83	3342.69
366.05	3314.76
366.26	3318.86
366.48	3340.48
366.70	3349.41
366.92	3354.90
367.13	3328.85
367.35	3353.92
367.57	3352.20
367.79	3349.99
368.01	3347.20
368.22	3353.43
368.44	3357.11
368.66	3345.32
368.88	3339.42
369.09	3348.67
369.31	3369.56
369.53	3336.80
369.75	3345.15
369.96	3359.00
370.18	3347.94
370.40	3371.12
370.62	3332.37
370.83	3340.56
371.05	3357.77
371.27	3382.51
371.49	3332.70
371.70	3344.74
371.92	3375.71
372.14	3341.38
372.36	3349.08
372.57	3360.14
372.79	3342.12
373.01	3372.19
373.22	3335.16
373.44	3364.98
373.66	3368.42
373.88	3364.65
374.09	3352.12
374.31	3360.96
374.53	3360.55
374.75	3356.78
374.96	3370.96
375.18	3375.30
375.40	3363.99
375.61	3350.64
375.83	3362.36
376.05	3350.97
376.27	3356.70
376.48	3334.34
376.70	3363.17
376.92	3347.36
377.13	3360.55
377.35	3372.76
377.57	3358.59
377.79	3362.60
378.00	3350.56
378.22	3365.47
378.44	3349.82
378.65	3386.85
378.87	3381.20
379.09	3371.20
379.30	3367.02
379.52	3366.78
379.74	3362.76
379.96	3372.59
380.17	3373.41
380.39	3367.35
380.61	3380.95
380.82	3408.23
381.04	3381.44
381.26	3395.86
381.47	3402.33
381.69	3411.10
381.91	3376.20
382.12	3399.38
382.34	3412.16
382.56	3394.30
382.77	3391.68
382.99	3404.71
383.21	3385.21
383.42	3415.60
383.64	3415.03
383.86	3412.00
384.07	3418.63
384.29	3413.39
384.51	3401.51
384.72	3414.70
384.94	3404.46
385.16	3409.95
385.37	3404.54
385.59	3399.71
385.81	3413.72
386.02	3416.18
386.24	3446.98
386.46	3416.67
386.67	3439.93
386.89	3434.69
387.11	3438.05
387.32	3424.61
387.54	3427.64
387.76	3447.71
387.97	3448.53
388.19	3461.07
388.40	3436.49
388.62	3455.91
388.84	3461.15
389.05	3452.55
389.27	3470.73
389.49	3456.32
389.70	3465.41
389.92	3459.18
390.14	3487.94
390.35	3480.40
390.57	3468.44
390.78	3487.61
391.00	3462.30
391.22	3488.10
391.43	3472.21
391.65	3487.12
391.86	3499.32
392.08	3503.91
392.30	3492.52
392.51	3511.20
392.73	3524.96
392.95	3492.52
393.16	3501.62
393.38	3525.46
393.59	3517.51
393.81	3537.09
394.03	3538.81
394.24	3550.60
394.46	3551.92
394.67	3551.26
394.89	3528.73
395.11	3555.85
395.32	3559.94
395.54	3544.13
395.75	3561.91
395.97	3553.47
396.19	3543.81
396.40	3588.61
396.62	3578.13
396.83	3581.90
397.05	3581.32
397.26	3603.20
397.48	3591.24
397.70	3598.85
397.91	3611.88
398.13	3605.41
398.34	3608.93
398.56	3610.41
398.78	3608.93
398.99	3650.30
399.21	3639.08
399.42	3658.16
399.64	3632.03
399.85	3644.24
400.07	3648.82
400.29	3672.91
400.50	3664.39
400.72	3686.43
400.93	3661.11
401.15	3654.89
401.36	3687.90
401.58	3719.36
401.79	3698.06
402.01	3704.37
402.23	3711.08
402.44	3726.81
402.66	3731.07
402.87	3737.38
403.09	3719.03
403.30	3756.30
403.52	3707.89
403.73	3749.18
403.95	3748.44
404.16	3768.67
404.38	3765.07
404.60	3750.16
404.81	3769.25
405.03	3785.06
405.24	3787.92
405.46	3811.60
405.67	3803.00
405.89	3820.20
406.10	3820.69
406.32	3816.02
406.53	3855.01
406.75	3867.30
406.96	3865.17
407.18	3846.49
407.39	3844.77
407.61	3870.09
407.82	3879.59
408.04	3891.47
408.25	3885.41
408.47	3900.97
408.68	3919.16
408.90	3914.90
409.12	3937.34
409.33	3942.50
409.55	3940.87
409.76	3947.17
409.98	3930.87
410.19	3982.15
410.41	3980.68
410.62	3962.74
410.84	3981.17
411.05	3989.53
411.27	4025.57
411.48	4032.29
411.70	4015.66
411.91	4041.05
412.12	4053.26
412.34	4047.11
412.55	4037.94
412.77	4052.36
412.98	4073.08
413.20	4090.61
413.41	4082.01
413.63	4082.67
413.84	4111.83
414.06	4130.26
414.27	4129.44
414.49	4125.43
414.70	4146.40
414.92	4154.76
415.13	4147.79
415.35	4182.36
415.56	4177.53
415.78	4185.23
415.99	4197.27
416.21	4200.14
416.42	4228.40
416.63	4239.38
416.85	4261.09
417.06	4245.52
417.28	4226.84
417.49	4304.75
417.71	4279.52
417.92	4270.83
418.14	4295.82
418.35	4337.52
418.57	4319.33
418.78	4360.45
418.99	4326.05
419.21	4369.05
419.42	4354.72
419.64	4380.44
419.85	4399.28
420.07	4438.11
420.28	4441.47
420.50	4416.49
420.71	4434.59
420.92	4446.88
421.14	4463.51
421.35	4459.82
421.57	4480.14
421.78	4504.96
422.00	4530.19
422.21	4535.43
422.42	4549.69
422.64	4508.56
422.85	4571.48
423.07	4595.48
423.28	4590.40
423.50	4592.77
423.71	4624.48
423.92	4660.44
424.14	4664.45
424.35	4677.89
424.57	4696.16
424.78	4727.20
424.99	4751.04
425.21	4744.24
425.42	4772.83
425.64	4742.28
425.85	4782.58
426.06	4757.84
426.28	4796.34
426.49	4853.03
426.71	4828.86
426.92	4853.44
427.13	4877.61
427.35	4925.77
427.56	4950.02
427.78	4913.24
427.99	4937.00
428.20	4989.83
428.42	5002.78
428.63	5014.16
428.84	4974.02
429.06	5017.69
429.27	5058.65
429.49	5058.32
429.70	5117.22
429.91	5103.29
430.13	5129.83
430.34	5145.89
430.56	5162.68
430.77	5208.97
430.98	5157.44
431.20	5207.74
431.41	5265.98
431.62	5271.06
431.84	5238.70
432.05	5289.74
432.26	5306.78
432.48	5290.07
432.69	5374.93
432.91	5356.67
433.12	5384.11
433.33	5393.04
433.55	5482.74
433.76	5486.92
433.97	5454.07
434.19	5477.50
434.40	5562.86
434.61	5544.02
434.83	5577.44
435.04	5567.53
435.25	5620.86
435.47	5618.97
435.68	5596.61
435.89	5705.31
436.11	5684.34
436.32	5730.95
436.53	5713.51
436.75	5715.14
436.96	5753.81
437.17	5727.51
437.39	5762.49
437.60	5809.92
437.81	5831.30
438.03	5851.37
438.24	5856.94
438.45	5979.00
438.67	5898.40
438.88	5969.09
439.09	6008.99
439.31	5996.29
439.52	6057.07
439.73	6018.16
439.94	5995.96
440.16	6083.20
440.37	6057.32
440.58	6151.69
440.80	6161.76
441.01	6126.38
441.22	6309.55
441.44	6252.04
441.65	6215.91
441.86	6255.07
442.08	6302.17
442.29	6285.71
442.50	6369.59
442.71	6336.66
442.93	6368.69
443.14	6396.63
443.35	6458.15
443.57	6394.99
443.78	6474.86
443.99	6540.15
444.20	6466.99
444.42	6542.03
444.63	6552.35
444.84	6623.05
445.06	6693.25
445.27	6606.50
445.48	6627.47
445.69	6682.69
445.91	6706.28
446.12	6679.33
446.33	6755.76
446.54	6860.61
446.76	6771.08
446.97	6812.69
447.18	6842.02
447.39	6898.62
447.61	6930.41
447.82	6954.90
448.03	6940.57
448.25	6983.98
448.46	7077.37
448.67	7112.76
448.88	7031.33
449.10	7175.43
449.31	7175.67
449.52	7145.36
449.73	7204.75
449.95	7306.74
450.16	7217.21
450.37	7364.91
450.58	7504.74
450.79	7312.97
451.01	7384.16
451.22	7350.57
451.43	7432.00
451.64	7508.75
451.86	7518.26
452.07	7581.99
452.28	7610.50
452.49	7690.53
452.71	7620.57
452.92	7632.70
453.13	7769.58
453.34	7753.77
453.55	7841.10
453.77	7894.76
453.98	7915.97
454.19	7848.80
454.40	7922.85
454.62	8026.40
454.83	7924.57
455.04	8086.77
455.25	7973.40
455.46	8278.79
455.68	8133.30
455.89	8144.69
456.10	8246.68
456.31	8258.47
456.52	8319.42
456.74	8284.85
456.95	8483.51
457.16	8403.63
457.37	8495.88
457.58	8514.72
457.80	8507.02
458.01	8522.34
458.22	8884.91
458.43	8687.65
458.64	8786.44
458.86	8664.05
459.07	8819.62
459.28	8757.44
459.49	8911.20
459.70	9070.78
459.91	9011.64
460.13	9012.05
460.34	9085.77
460.55	9043.75
460.76	9213.57
460.97	9256.00
461.19	9255.43
461.40	9486.85
461.61	9352.58
461.82	9397.23
462.03	9501.26
462.24	9498.07
462.46	9477.67
462.67	9603.74
462.88	9667.15
463.09	9665.68
463.30	9839.26
463.51	9748.99
463.72	9941.74
463.94	10003.59
464.15	10000.89
464.36	9910.20
464.57	10231.90
464.78	10209.78
464.99	10220.10
465.20	10217.07
465.42	10421.70
465.63	10409.42
465.84	10385.99
466.05	10514.27
466.26	10607.09
466.47	10714.24
466.68	10652.06
466.90	10840.31
467.11	10776.08
467.32	10957.86
467.53	11067.55
467.74	10919.85
467.95	11065.50
468.16	11235.07
468.37	11320.19
468.59	11351.15
468.80	11554.23
469.01	11326.50
469.22	11625.50
469.43	11842.01
469.64	11681.37
469.85	11870.11
470.06	11913.20
470.28	12099.81
470.49	11872.32
470.70	12095.79
470.91	12368.01
471.12	12234.81
471.33	12510.14
471.54	12405.53
471.75	12513.33
471.96	12850.18
472.17	12760.32
472.39	13065.14
472.60	12833.56
472.81	13141.49
473.02	13064.98
473.23	13356.93
473.44	13443.36
473.65	13357.26
473.86	13456.55
474.07	13592.04
474.28	13700.58
474.49	14049.07
474.71	13965.43
474.92	14191.77
475.13	14061.60
475.34	14219.37
475.55	14307.44
475.76	14411.06
475.97	14786.17
476.18	14744.72
476.39	14968.36
476.60	15087.39
476.81	15127.85
477.02	15291.45
477.23	15363.94
477.44	15425.71
477.65	15618.63
477.87	15820.56
478.08	15915.91
478.29	15960.56
478.50	16310.84
478.71	16217.70
478.92	16398.25
479.13	16526.04
479.34	16542.67
479.55	16758.94
479.76	16745.42
479.97	16858.39
480.18	17378.57
480.39	17072.36
480.60	17502.19
480.81	17555.68
481.02	17669.30
481.23	17718.29
481.44	18057.27
481.65	18266.08
481.86	18439.42
482.07	18090.94
482.28	18889.81
482.49	18701.07
482.71	18752.68
482.92	18992.86
483.13	19266.55
483.34	19138.02
483.55	19383.70
483.76	19401.88
483.97	19756.43
484.18	19786.57
484.39	19988.50
484.60	19900.52
484.81	20391.71
485.02	20329.37
485.23	20639.18
485.44	20700.54
485.65	20910.66
485.86	20833.08
486.07	21217.37
486.28	21241.45
486.49	21491.30
486.70	21706.26
486.91	21846.09
487.12	21720.76
487.33	21794.81
487.54	22282.56
487.75	22335.56
487.96	22468.02
488.17	22424.03
488.38	22709.35
488.59	22767.76
488.80	22975.26
489.01	23025.31
489.22	23383.79
489.43	23429.66
489.64	23263.86
489.85	23886.44
490.06	23518.38
490.26	24006.13
490.47	23856.62
490.68	24301.61
490.89	24563.50
491.10	24226.57
491.31	24598.23
491.52	24903.05
491.73	24804.75
491.94	24920.91
492.15	25228.19
492.36	25331.00
492.57	25420.86
492.78	25508.43
492.99	25538.42
493.20	25888.70
493.41	25984.05
493.62	26075.64
493.83	26108.49
494.04	26361.37
494.25	26591.48
494.46	26644.07
494.67	26516.53
494.88	26764.08
495.08	26879.02
495.29	26995.59
495.50	27334.81
495.71	27151.97
495.92	27487.92
496.13	27533.63
496.34	27461.62
496.55	27639.96
496.76	28109.68
496.97	27742.93
497.18	28186.03
497.39	28156.70
497.60	28565.07
497.81	28282.69
498.02	28621.26
498.22	28293.26
498.43	28924.61
498.64	29001.70
498.85	28953.28
499.06	29134.08
499.27	29557.92
499.48	28866.94
499.69	29390.48
499.90	29538.10
500.11	29780.66
500.32	30113.82
500.52	29842.35
500.73	30317.39
500.94	30317.31
501.15	30345.00
501.36	30431.34
501.57	30272.09
501.78	30559.30
501.99	30794.24
502.20	30847.00
502.41	30905.98
502.61	30880.50
502.82	31379.30
503.03	31088.82
503.24	31654.72
503.45	31391.51
503.66	31766.86
503.87	31640.79
504.08	31996.97
504.28	31857.06
504.49	32097.57
504.70	32135.25
504.91	32449.82
505.12	32072.17
505.33	32696.72
505.54	32623.16
505.75	32702.78
505.95	33062.98
506.16	32946.25
506.37	32855.81
506.58	33341.10
506.79	32891.36
507.00	33531.47
507.21	33179.96
507.41	33313.08
507.62	33526.89
507.83	34126.61
508.04	33645.42
508.25	34142.83
508.46	33912.89
508.67	34410.22
508.87	34124.65
509.08	34651.63
509.29	34483.70
509.50	34656.38
509.71	34749.61
509.92	34860.20
510.12	34722.25
510.33	34924.26
510.54	34795.40
510.75	35106.61
510.96	35351.38
511.17	35557.08
511.37	35522.76
511.58	35859.61
511.79	35583.78
512.00	35542.42
512.21	36060.14
512.42	36038.02
512.62	36158.53
512.83	36401.17
513.04	36303.52
513.25	36712.71
513.46	35940.70
513.66	36960.59
513.87	36624.81
514.08	37049.97
514.29	36881.62
514.50	36853.44
514.71	37259.43
514.91	37074.62
515.12	37084.37
515.33	37555.81
515.54	37352.33
515.75	37839.09
515.95	37591.86
516.16	37696.06
516.37	38168.73
516.58	38249.01
516.78	37999.16
516.99	38384.10
517.20	38235.66
517.41	38331.83
517.62	38577.92
517.82	38508.45
518.03	39004.06
518.24	39326.32
518.45	38645.58
518.66	39113.01
518.86	38883.88
519.07	39415.12
519.28	38722.75
519.49	39483.85
519.69	39518.34
519.90	39717.81
520.11	39869.86
520.32	39744.44
520.52	40152.31
520.73	39768.44
520.94	40309.60
521.15	40274.86
521.36	39877.39
521.56	40757.28
521.77	40051.31
521.98	40748.27
522.19	40314.84
522.39	40740.00
522.60	40610.07
522.81	40844.03
523.02	40686.59
523.22	41072.59
523.43	41286.64
523.64	41211.19
523.84	41342.26
524.05	41745.47
524.26	41665.84
524.47	41399.36
524.67	41541.16
524.88	41897.02
525.09	42218.47
525.30	41896.20
525.50	41928.23
525.71	42020.55
525.92	42197.66
526.13	42536.39
526.33	42328.48
526.54	42171.36
526.75	42459.39
526.95	42812.13
527.16	42117.30
527.37	42781.41
527.58	42965.40
527.78	42956.72
527.99	43272.84
528.20	43483.13
528.40	43042.40
528.61	42849.65
528.82	43469.69
529.03	43190.76
529.23	43264.90
529.44	43650.90
529.65	43752.39
529.85	43696.94
530.06	43705.05
530.27	43805.23
530.47	43400.55
530.68	44384.23
530.89	43727.16
531.09	44380.06
531.30	44211.55
531.51	43843.57
531.72	44480.08
531.92	44403.98
532.13	44830.94
532.34	44667.59
532.54	44612.71
532.75	44831.35
532.96	44777.94
533.16	45017.96
533.37	45300.09
533.58	44916.46
533.78	45457.94
533.99	45426.08
534.20	44976.51
534.40	45244.87
534.61	45427.31
534.82	45610.31
535.02	45701.98
535.23	45706.32
535.44	45998.77
535.64	45781.19
535.85	45953.80
536.06	45904.56
536.26	45888.18
536.47	45949.29
536.68	46511.42
536.88	45790.04
537.09	46434.33
537.29	45941.10
537.50	46874.48
537.71	46349.55
537.91	46622.25
538.12	46798.46
538.33	46584.49
538.53	46798.54
538.74	46982.29
538.95	46981.47
539.15	46830.08
539.36	47116.80
539.56	47476.83
539.77	47086.57
539.98	47071.50
540.18	47459.22
540.39	47098.78
540.60	47342.98
540.80	47666.06
541.01	47559.00
541.21	47561.53
541.42	47790.91
541.63	47634.69
541.83	47925.91
542.04	47883.80
542.25	47826.71
542.45	48031.50
542.66	48101.05
542.86	48323.22
543.07	47249.42
543.28	48366.80
543.48	48125.46
543.69	48515.31
543.89	48182.81
544.10	48898.37
544.31	48696.19
544.51	48389.82
544.72	48705.86
544.92	48525.64
545.13	48968.08
545.33	48757.30
545.54	48572.08
545.75	48922.21
545.95	48605.34
546.16	48675.30
546.36	49251.35
546.57	48463.30
546.78	47878.72
546.98	48554.64
547.19	47862.67
547.39	48941.62
547.60	49147.40
547.80	49826.10
548.01	49822.00
548.22	49312.55
548.42	49502.03
548.63	49684.62
548.83	49463.03
549.04	49742.79
549.24	49437.47
549.45	49652.76
549.65	50001.48
549.86	49320.82
550.07	49623.35
550.27	50044.33
550.48	50177.94
550.68	50083.65
550.89	50068.58
551.09	50337.11
551.30	50025.16
551.50	50235.12
551.71	49941.77
551.91	49930.22
552.12	50131.98
552.33	50492.92
552.53	49899.74
552.74	50724.75
552.94	50591.22
553.15	50386.34
553.35	50752.84
553.56	50338.17
553.76	50880.31
553.97	50460.64
554.17	50650.04
554.38	51338.32
554.58	50695.83
554.79	51205.69
554.99	50628.00
555.20	50742.19
555.40	51280.48
555.61	50791.02
555.81	50524.21
556.02	51587.43
556.22	51280.15
556.43	51204.87
556.63	51318.90
556.84	51356.99
557.04	51965.32
557.25	51231.17
557.45	51576.54
557.66	51483.31
557.86	51343.48
558.07	51929.85
558.27	51538.69
558.48	51558.43
558.68	51567.61
558.89	51638.55
559.09	51607.91
559.30	51338.73
559.50	51675.90
559.71	51306.37
559.91	52084.02
560.12	51757.41
560.32	51639.53
560.53	51938.04
560.73	51582.03
560.94	52024.39
561.14	51578.34
561.35	52262.20
561.55	52054.04
561.76	52284.89
561.96	51734.31
562.17	52327.57
562.37	52391.71
562.57	52119.41
562.78	52059.04
562.98	52353.29
563.19	52256.95
563.39	52404.65
563.60	52461.59
563.80	51804.93
564.01	52485.02
564.21	52197.23
564.42	52109.34
564.62	52286.20
564.82	52724.14
565.03	52320.69
565.23	52449.05
565.44	52749.29
565.64	52517.54
565.85	52813.43
566.05	52598.55
566.25	52864.38
566.46	52531.05
566.66	52750.19
566.87	52646.23
567.07	52677.93
567.28	52756.00
567.48	53126.85
567.68	52394.17
567.89	53505.48
568.09	52899.36
568.30	52862.17
568.50	53158.80
568.71	52977.92
568.91	53325.67
569.11	52773.78
569.32	52960.64
569.52	53135.94
569.73	52435.37
569.93	53013.31
570.13	52912.06
570.34	52693.42
570.54	53279.96
570.75	52950.15
570.95	52990.86
571.15	52912.06
571.36	53403.73
571.56	52975.14
571.77	52854.71
571.97	52496.73
572.17	53384.16
572.38	53278.40
572.58	53615.41
572.79	53342.13
572.99	53233.26
573.19	53127.01
573.40	52943.27
573.60	53132.50
573.81	52983.16
574.01	53299.94
574.21	53127.01
574.42	53273.16
574.62	53115.38
574.82	53642.36
575.03	53275.45
575.23	53887.22
575.43	53375.23
575.64	53348.03
575.84	53851.99
576.05	53388.91
576.25	53523.75
576.45	53293.06
576.66	53787.11
576.86	53300.43
577.06	53694.63
577.27	53588.38
577.47	53622.78
577.67	53575.03
577.88	53115.22
578.08	53678.08
578.28	53943.99
578.49	53724.77
578.69	53881.32
578.89	53691.51
579.10	53796.29
579.30	54484.24
579.50	53833.73
579.71	53480.16
579.91	54144.28
580.11	53899.59
580.32	53723.63
580.52	53664.89
580.72	54238.49
580.93	53521.21
581.13	53674.89
581.33	54082.27
581.54	53700.85
581.74	53766.22
581.94	53999.94
582.15	54329.50
582.35	53853.88
582.55	54026.64
582.76	53585.18
582.96	54241.27
583.16	53718.30
583.37	54051.14
583.57	53746.15
583.77	54345.06
583.97	53204.75
584.18	54326.63
584.38	54110.45
584.58	53816.52
584.79	54262.00
584.99	54038.52
585.19	53880.83
585.40	53752.54
585.60	54117.00
585.80	53735.83
586.00	54180.82
586.21	54165.58
586.41	54147.88
586.61	54424.20
586.82	54139.61
587.02	53906.63
587.22	54203.83
587.42	53558.56
587.63	54179.59
587.83	53569.29
588.03	53969.71
588.23	53623.60
588.44	54029.35
588.64	53731.16
588.84	53992.32
589.05	54017.55
589.25	54074.16
589.45	54062.61
589.65	54037.29
589.86	54266.01
590.06	54393.89
590.26	54023.94
590.46	54383.56
590.67	53707.33
590.87	54449.26
591.07	54437.22
591.27	53864.94
591.48	54288.78
591.68	53618.77
591.88	54707.55
592.08	53858.79
592.29	54397.65
592.49	54175.57
592.69	54574.03
592.89	54090.62
593.10	54245.45
593.30	54057.77
593.50	54825.43
593.70	53666.69
593.90	54629.65
594.11	54485.55
594.31	54557.07
594.51	54749.91
594.71	54680.03
594.92	54666.76
595.12	54309.76
595.32	54303.61
595.52	54567.31
595.72	53867.31
595.93	54770.30
596.13	54491.62
596.33	54117.98
596.53	54687.73
596.73	54495.63
596.94	54222.18
597.14	54741.30
597.34	54482.03
597.54	54806.35
597.74	54375.86
597.95	54477.93
598.15	54440.66
598.35	54575.01
598.55	54625.47
598.75	54446.07
598.96	54944.38
599.16	54397.65
599.36	54613.84
599.56	54386.43
599.76	54162.63
599.97	54919.48
600.17	54620.39
600.37	54831.25
600.57	54129.94
600.77	55087.08
600.97	54649.47
601.18	55262.63
601.38	54751.38
601.58	55008.93
601.78	54679.29
601.98	54495.06
602.18	54678.23
602.39	54968.14
602.59	54653.73
602.79	54392.66
602.99	54406.75
603.19	54567.72
603.39	54396.26
603.60	54448.69
603.80	54636.53
604.00	54563.87
604.20	54691.33
604.40	54823.22
604.60	54540.36
604.80	54516.44
605.01	54621.78
605.21	54376.77
605.41	54221.12
605.61	53984.87
605.81	54455.49
606.01	54914.40
606.21	54313.20
606.42	54701.98
606.62	54340.56
606.82	54778.09
607.02	54308.61
607.22	54475.15
607.42	54692.48
607.62	54182.04
607.82	54354.57
608.03	54431.57
608.23	54316.06
608.43	54205.47
608.63	54714.02
608.83	54526.68
609.03	54545.52
609.23	54457.37
609.43	54491.78
609.63	54385.45
609.84	54081.20
610.04	54863.20
610.24	54674.95
610.44	54654.47
610.64	54240.37
610.84	54417.40
611.04	54934.47
611.24	54645.13
611.44	53932.36
611.64	54553.55
611.85	54441.64
612.05	54258.64
612.25	54409.61
612.45	53973.72
612.65	54438.12
612.85	54343.75
613.05	54058.84
613.25	54558.62
613.45	54147.88
613.65	54323.03
613.85	53843.06
614.05	54318.68
614.25	54498.25
614.46	54366.85
614.66	53954.97
614.86	53820.62
615.06	53908.19
615.26	54284.28
615.46	53556.51
615.66	54219.81
615.86	54109.38
616.06	53682.67
616.26	53881.89
616.46	54512.75
616.66	53899.67
616.86	54388.15
617.06	53881.81
617.26	54265.77
617.46	53994.86
617.66	53759.26
617.86	53601.98
618.07	53972.09
618.27	53770.89
618.47	53741.08
618.67	53723.22
618.87	53917.94
619.07	53660.71
619.27	53473.12
619.47	53352.62
619.67	53786.70
619.87	53359.58
620.07	53925.64
620.27	53848.39
620.47	53477.71
620.67	53906.88
620.87	53736.41
621.07	53848.72
621.27	53643.84
621.47	53240.31
621.67	53576.75
621.87	53258.41
622.07	53651.54
622.27	53536.44
622.47	53329.60
622.67	53443.96
622.87	53162.48
623.07	53676.28
623.27	53918.84
623.47	53030.02
623.67	53525.79
623.87	53763.52
624.07	53626.96
624.27	53117.76
624.47	53372.11
624.67	53228.59
624.87	53287.33
625.07	52830.47
625.27	53322.31
625.47	52953.67
625.67	52799.50
625.87	53078.11
626.07	53010.77
626.27	53140.61
626.47	52968.01
626.67	52805.32
626.87	52653.52
627.07	53015.52
627.27	52906.00
627.47	53024.53
627.67	52825.55
627.87	52747.57
628.07	53012.98
628.27	52900.51
628.47	52512.13
628.67	53018.72
628.86	52964.08
629.06	52639.92
629.26	52465.19
629.46	52898.71
629.66	52731.43
629.86	52178.72
630.06	52697.51
630.26	52559.97
630.46	52875.36
630.66	52265.15
630.86	52333.79
631.06	52228.61
631.26	52008.74
631.46	52628.86
631.66	52637.63
631.86	52188.72
632.06	52523.27
632.26	52102.13
632.45	51936.57
632.65	52028.97
632.85	52091.15
633.05	51910.27
633.25	52185.03
633.45	51948.28
633.65	52074.36
633.85	52627.88
634.05	51718.67
634.25	52113.19
634.45	52050.68
634.65	52282.59
634.84	51904.54
635.04	52073.13
635.24	51832.86
635.44	52243.60
635.64	51893.89
635.84	52090.00
636.04	51777.81
636.24	51684.42
636.44	51763.56
636.64	51046.11
636.84	52067.72
637.03	51339.14
637.23	51605.04
637.43	51674.59
637.63	51405.08
637.83	51577.36
638.03	51725.87
638.23	51173.50
638.43	51681.15
638.62	51911.75
638.82	50768.00
639.02	51595.21
639.22	51156.05
639.42	51322.92
639.62	50971.48
639.82	51244.36
640.02	51360.60
640.21	51425.23
640.41	50718.85
640.61	51203.72
640.81	50993.68
641.01	50893.33
641.21	50769.06
641.41	51366.09
641.61	50766.93
641.80	50854.59
642.00	51072.65
642.20	51059.47
642.40	50467.68
642.60	50780.86
642.80	51150.97
642.99	50629.31
643.19	51036.69
643.39	50495.45
643.59	50926.84
643.79	50759.81
643.99	51045.70
644.19	50646.92
644.38	50140.50
644.58	50392.56
644.78	50117.97
644.98	50121.09
645.18	50211.11
645.38	50462.44
645.57	50036.79
645.77	49957.00
645.97	49774.41
646.17	50057.93
646.37	49928.17
646.56	49823.39
646.76	49990.34
646.96	50075.95
647.16	49891.71
647.36	50057.35
647.55	49877.13
647.75	49970.11
647.95	49849.20
648.15	50111.17
648.35	49961.67
648.55	50016.39
648.74	49824.79
648.94	49764.74
649.14	50053.42
649.34	49653.82
649.54	49757.69
649.73	49900.07
649.93	49515.05
650.13	49590.33
650.33	49328.77
650.52	49561.66
650.72	49798.24
650.92	49246.77
651.12	49079.57
651.32	49357.03
651.51	49451.89
651.71	49465.82
651.91	49203.60
652.11	49045.17
652.30	49117.91
652.50	49569.45
652.70	49621.71
652.90	49259.14
653.10	49372.43
653.29	49121.60
653.49	49440.10
653.69	48844.63
653.89	49024.11
654.08	48842.74
654.28	49289.53
654.48	48900.17
654.68	49102.43
654.87	48733.87
655.07	48596.33
655.27	49009.61
655.47	48526.78
655.66	48583.55
655.86	48281.44
656.06	48864.45
656.26	48158.31
656.45	48524.65
656.65	48407.35
656.85	48186.25
657.04	47875.28
657.24	47876.59
657.44	47764.28
657.64	48137.18
657.83	47351.09
658.03	47953.35
658.23	47899.70
658.43	47739.79
658.62	47992.67
658.82	47643.70
659.02	47623.96
659.21	47696.13
659.41	47508.53
659.61	48043.95
659.81	47664.10
660.00	47354.44
660.20	47392.54
660.40	47073.63
660.59	47289.15
660.79	46824.02
660.99	47229.60
661.19	47176.43
661.38	47221.98
661.58	46640.19
661.78	47084.69
661.97	47038.98
662.17	47685.81
662.37	47066.09
662.56	47147.76
662.76	47192.33
662.96	47189.79
663.15	47092.71
663.35	47061.18
663.55	46721.54
663.74	46312.11
663.94	46791.91
664.14	46331.03
664.33	46750.95
664.53	46613.90
664.73	46973.19
664.93	46262.88
665.12	46542.79
665.32	46321.78
665.52	46347.83
665.71	46038.99
665.91	46254.03
666.10	45895.14
666.30	46213.97
666.50	45835.34
666.69	45843.45
666.89	46109.12
667.09	46355.85
667.28	45916.44
667.48	45827.48
667.68	45937.82
667.87	45946.59
668.07	45551.49
668.27	45936.84
668.46	45931.60
668.66	45785.45
668.86	46187.84
669.05	45747.28
669.25	46029.98
669.44	45640.21
669.64	45482.93
669.84	45425.18
670.03	45896.45
670.23	45450.90
670.43	45345.14
670.62	45228.98
670.82	45009.52
671.01	45304.92
671.21	44913.59
671.41	44958.81
671.60	45232.83
671.80	45300.74
672.00	45019.02
672.19	45320.89
672.39	45124.53
672.58	45096.93
672.78	44859.61
672.98	45221.94
673.17	45155.74
673.37	44407.99
673.56	44693.64
673.76	44837.16
673.96	45101.11
674.15	44711.66
674.35	44862.31
674.54	44744.43
674.74	44613.36
674.94	44613.77
675.13	44741.07
675.33	44243.42
675.52	44682.09
675.72	44448.38
675.91	44317.39
676.11	44403.08
676.31	43942.45
676.50	44134.96
676.70	44076.79
676.89	44171.82
677.09	44179.03
677.28	44022.89
677.48	43567.83
677.68	43885.59
677.87	43580.37
678.07	43452.74
678.26	43649.01
678.46	43621.08
678.65	43461.26
678.85	43743.14
679.04	43272.76
679.24	43457.57
679.44	43275.96
679.63	43468.22
679.83	43205.91
680.02	43455.36
680.22	43131.78
680.41	43296.52
680.61	43159.88
680.80	43209.11
681.00	43346.57
681.19	43223.45
681.39	43037.65
681.59	42890.36
681.78	42730.70
681.98	43050.11
682.17	42512.55
682.37	42760.85
682.56	42407.53
682.76	42789.85
682.95	42600.21
683.15	42702.85
683.34	42647.23
683.54	42786.41
683.73	42966.47
683.93	42517.80
684.12	42775.68
684.32	42849.08
684.51	42160.39
684.71	42395.25
684.90	42357.48
685.10	42318.08
685.29	42158.75
685.49	42416.22
685.68	42434.49
685.88	42430.88
686.07	42087.15
686.27	42545.65
686.46	42267.13
686.66	42061.51
686.85	42065.11
687.05	41794.70
687.24	41737.19
687.44	41918.40
687.63	41821.24
687.83	41196.53
688.02	41626.36
688.22	41655.68
688.41	41461.46
688.61	41441.96
688.80	41682.64
689.00	41342.75
689.19	41069.88
689.39	41546.00
689.58	41351.85
689.77	41289.10
689.97	41448.35
690.16	41107.32
690.36	40679.46
690.55	40578.86
690.75	41183.10
690.94	40742.04
691.14	40828.63
691.33	40466.63
691.53	40819.70
691.72	40574.11
691.91	40520.45
692.11	40538.97
692.30	40707.15
692.50	40681.59
692.69	40269.29
692.89	40409.62
693.08	40257.58
693.28	40400.28
693.47	40505.55
693.66	40474.25
693.86	40237.43
694.05	40175.08
694.25	40155.42
694.44	40155.34
694.64	40008.63
694.83	39965.70
695.02	39957.26
695.22	40114.79
695.41	39812.43
695.61	39779.09
695.80	39817.43
695.99	39816.20
696.19	39803.58
696.38	39813.25
696.58	39459.44
696.77	39980.53
696.96	39705.04
697.16	39509.25
697.35	39375.07
697.55	39321.25
697.74	39156.10
697.93	39656.78
698.13	39121.28
698.32	39324.77
698.52	39183.21
698.71	38752.81
698.90	39386.04
699.10	39071.97
699.29	39195.01
699.49	39325.42
699.68	38949.33
699.87	38834.98
700.07	39044.44
700.26	38896.66
700.45	38814.17
700.65	38734.38
700.84	39160.36
701.04	38795.74
701.23	39109.57
701.42	38811.96
701.62	38663.77
701.81	38701.45
702.00	38552.19
702.20	38096.40
702.39	38176.19
702.58	38339.37
702.78	37968.11
702.97	37852.36
703.17	37975.24
703.36	38008.33
703.55	37786.17
703.75	37765.04
703.94	37870.14
704.13	37706.63
704.33	37744.72
704.52	37907.66
704.71	37753.24
704.91	37650.43
705.10	37438.92
705.29	37446.62
705.49	37608.73
705.68	37605.05
705.87	37588.01
706.07	37289.91
706.26	37714.82
706.45	37217.33
706.65	37092.48
706.84	37479.47
707.03	37612.17
707.23	36990.66
707.42	36857.46
707.61	37278.36
707.80	36843.94
708.00	36874.91
708.19	36757.68
708.38	37024.08
708.58	36388.64
708.77	36948.31
708.96	36386.59
709.16	36375.78
709.35	37030.39
709.54	36550.26
709.74	36464.25
709.93	36223.49
710.12	36693.70
710.31	36873.92
710.51	36425.34
710.70	36449.01
710.89	36610.47
711.09	36015.99
711.28	36024.10
711.47	36191.62
711.66	35978.47
711.86	35952.42
712.05	36044.33
712.24	36160.66
712.43	35745.74
712.63	35428.14
712.82	35898.27
713.01	35692.25
713.21	35376.78
713.40	35486.79
713.59	35754.09
713.78	35186.23
713.98	35472.29
714.17	35480.16
714.36	35453.86
714.55	35206.14
714.75	35520.79
714.94	35509.73
715.13	35657.92
715.32	35239.89
715.52	35371.62
715.71	35101.28
715.90	35081.38
716.09	34867.49
716.29	35106.12
716.48	34805.97
716.67	34369.09
716.86	34625.25
717.06	34685.14
717.25	34690.87
717.44	34843.24
717.63	34756.08
717.82	34359.26
718.02	34530.23
718.21	34661.54
718.40	34682.92
718.59	34533.26
718.79	34427.58
718.98	34483.37
719.17	34771.23
719.36	34710.20
719.55	34365.00
719.75	34183.55
719.94	33981.45
720.13	34145.46
720.32	34011.68
720.51	33745.53
720.71	33798.86
720.90	33519.84
721.09	33836.21
721.28	33615.11
721.47	33920.75
721.67	33689.17
721.86	33640.92
722.05	33630.92
722.24	33260.90
722.43	33559.49
722.63	33287.93
722.82	33430.30
723.01	33442.51
723.20	33047.83
723.39	33061.34
723.58	33298.66
723.78	32803.63
723.97	33296.53
724.16	32950.18
724.35	33060.93
724.54	32765.86
724.73	33008.18
724.93	32829.18
725.12	32987.53
725.31	32426.64
725.50	32740.22
725.69	32839.75
725.88	32670.43
726.08	32343.24
726.27	32763.24
726.46	32163.59
726.65	32836.31
726.84	32256.25
727.03	32344.14
727.23	32574.17
727.42	32262.47
727.61	32256.98
727.80	32168.51
727.99	32309.66
728.18	32310.97
728.37	32020.24
728.56	31842.06
728.76	31720.91
728.95	31850.99
729.14	31803.07
729.33	31781.53
729.52	31894.98
729.71	31878.35
729.90	31899.82
730.09	31649.31
730.29	31924.23
730.48	31413.06
730.67	31816.67
730.86	31463.11
731.05	31748.84
731.24	31484.00
731.43	31423.54
731.62	31210.88
731.81	31143.05
732.01	31548.06
732.20	31172.54
732.39	31298.78
732.58	31279.69
732.77	30734.28
732.96	31047.29
733.15	31141.41
733.34	30803.25
733.53	30920.72
733.72	31015.67
733.92	30909.83
734.11	30963.65
734.30	30904.59
734.49	31064.57
734.68	30773.43
734.87	30648.18
735.06	30640.81
735.25	30808.09
735.44	30640.48
735.63	30749.76
735.82	30738.45
736.01	30629.09
736.20	30517.68
736.40	30788.18
736.59	30590.67
736.78	30616.97
736.97	30201.48
737.16	30295.85
737.35	30298.63
737.54	30212.45
737.73	30092.61
737.92	30251.37
738.11	30373.26
738.30	30218.84
738.49	30185.09
738.68	30079.01
738.87	30265.37
739.06	29930.00
739.25	29919.10
739.44	29883.55
739.63	29684.90
739.82	29525.16
740.01	29786.48
740.20	29466.75
740.39	29646.31
740.59	29614.86
740.78	29698.41
740.97	29616.25
741.16	29389.99
741.35	29619.77
741.54	29518.27
741.73	29460.44
741.92	29393.35
742.11	29400.89
742.30	29347.80
742.49	29085.01
742.68	29282.76
742.87	29146.53
743.06	28857.03
743.25	29158.98
743.44	28906.83
743.63	29112.04
743.82	28928.62
744.01	28891.84
744.20	28781.58
744.39	28986.05
744.58	28813.20
744.77	28602.18
744.96	28366.99
745.15	28694.75
745.34	28395.09
745.53	28433.51
745.72	28198.24
745.91	28209.05
746.10	28207.08
746.29	28359.04
746.48	28327.59
746.67	28373.05
746.86	28420.73
747.04	28251.24
747.23	28184.88
747.42	28352.49
747.61	28095.18
747.80	28369.04
747.99	27803.88
748.18	28100.67
748.37	27878.26
748.56	27624.72
748.75	27820.43
748.94	27779.63
749.13	27847.38
749.32	27604.00
749.51	27816.17
749.70	27777.83
749.89	27671.74
750.08	27765.79
750.27	27551.57
750.46	27725.48
750.65	27953.38
750.84	27585.32
751.02	27609.65
751.21	27431.64
751.40	27539.53
751.59	27528.55
751.78	27484.31
751.97	27448.68
752.16	27358.00
752.35	27530.84
752.54	27232.99
752.73	27436.64
752.92	27181.54
753.11	27166.06
753.30	27256.17
753.49	27307.45
753.67	27125.59
753.86	26928.25
754.05	27052.93
754.24	26905.15
754.43	26920.63
754.62	26911.46
754.81	26613.93
755.00	26719.44
755.19	26598.20
755.38	26307.96
755.56	26554.86
755.75	26848.38
755.94	26546.18
756.13	26616.47
756.32	26619.99
756.51	26512.84
756.70	26601.72
756.89	26463.69
757.08	26426.33
757.26	26343.02
757.45	26408.56
757.64	26186.07
757.83	26553.31
758.02	26310.25
758.21	26356.78
758.40	26476.88
758.59	26418.55
758.77	26178.69
758.96	26284.20
759.15	26279.04
759.34	25988.40
759.53	26007.32
759.72	26015.18
759.91	25753.13
760.09	25817.84
760.28	25836.52
760.47	25608.29
760.66	25842.99
760.85	25570.12
761.04	25769.35
761.23	25656.30
761.41	25534.73
761.60	25703.07
761.79	25561.19
761.98	25534.81
762.17	25871.42
762.36	25555.86
762.54	25858.39
762.73	25688.57
762.92	25534.40
763.11	25667.77
763.30	25699.80
763.49	25586.42
763.67	25479.35
763.86	25409.15
764.05	25419.72
764.24	25322.15
764.43	25488.61
764.61	25170.68
764.80	25241.05
764.99	25444.46
765.18	25142.67
765.37	25253.34
765.55	25210.50
765.74	25109.33
765.93	24960.73
766.12	25177.97
766.31	25077.21
766.49	25148.16
766.68	25194.77
766.87	25147.58
767.06	25021.75
767.25	25015.77
767.43	25034.94
767.62	24997.75
767.81	25110.23
768.00	24885.61
768.19	24751.01
768.37	24855.21
768.56	24730.94
768.75	24734.88
768.94	24770.76
769.12	24527.21
769.31	24503.54
769.50	24419.65
769.69	24617.40
769.88	24346.01
770.06	24747.98
770.25	24474.95
770.44	24412.12
770.63	24581.85
770.81	24431.20
771.00	24338.96
771.19	24357.97
771.38	24384.02
771.56	24590.45
771.75	24196.26
771.94	24414.16
772.13	24305.70
772.31	24238.45
772.50	24443.49
772.69	24293.33
772.88	24513.61
773.06	24262.12
773.25	24353.22
773.44	24310.37
773.62	24209.12
773.81	24158.74
774.00	23983.76
774.19	24043.64
774.37	23988.68
774.56	24210.19
774.75	23800.84
774.94	24089.03
775.12	23771.43
775.31	23911.02
775.50	23916.67
775.68	23817.39
775.87	23811.65
776.06	23726.46
776.25	23888.49
776.43	23734.89
776.62	23919.95
776.81	23575.64
776.99	23747.02
777.18	23612.75
777.37	23379.20
777.55	23540.42
777.74	23516.83
777.93	23454.48
778.12	23492.74
778.30	23478.57
778.49	23505.93
778.68	23580.15
778.86	23428.27
779.05	23625.45
779.24	23584.90
779.42	23486.52
779.61	23382.40
779.80	23401.98
779.98	23464.72
780.17	23558.03
780.36	23184.15
780.54	23366.91
780.73	22984.60
780.92	23226.18
781.10	23170.23
781.29	23104.53
781.48	23070.45
781.66	23100.27
781.85	23123.45
782.04	22987.30
782.22	23172.52
782.41	22915.71
782.60	23027.85
782.78	23038.42
782.97	23107.64
783.16	22819.04
783.34	22775.38
783.53	22862.13
783.71	22678.96
783.90	22742.20
784.09	22734.91
784.27	22806.84
784.46	22783.00
784.65	22855.99
784.83	22821.42
785.02	22789.39
785.20	23034.32
785.39	22697.56
785.58	23026.46
785.76	22913.82
785.95	22785.13
786.14	22884.58
786.32	22848.29
786.51	22720.82
786.69	22834.44
786.88	22732.21
787.07	22685.51
787.25	22685.68
787.44	22660.28
787.62	22621.13
787.81	22716.89
788.00	22770.05
788.18	22724.51
788.37	22739.58
788.55	23171.87
788.74	22930.70
788.93	23094.86
789.11	23196.93
789.30	23166.87
789.48	23047.35
789.67	23163.02
789.86	23084.62
790.04	23211.92
790.23	23086.83
790.41	22969.36
790.60	23077.09
790.78	23004.42
790.97	22713.37
791.16	22834.11
791.34	23055.87
791.53	22724.75
791.71	23034.24
791.90	22803.97
792.08	22872.04
792.27	22822.73
792.46	22675.85
792.64	22753.83
792.83	22692.72
793.01	22793.15
793.20	22791.60
793.38	22727.29
793.57	22822.24
793.75	22812.90
793.94	22841.41
794.12	23095.93
794.31	22874.01
794.50	23084.29
794.68	23072.09
794.87	22960.84
795.05	23119.03
795.24	22928.24
795.42	22806.34
795.61	23169.82
795.79	23152.61
795.98	22899.65
796.16	23090.93
796.35	23144.67
796.53	22909.40
796.72	23245.84
796.90	23202.58
797.09	23211.51
797.27	23135.74
797.46	23140.90
797.64	23100.35
797.83	23015.07
798.01	23106.90
798.20	23261.24
798.38	23000.33
798.57	23327.27
798.75	23116.24
798.94	22878.92
799.12	23390.42
799.31	23136.97
799.49	23215.28
799.68	23128.45
799.86	23204.06
800.05	23137.87
800.23	23107.72
800.42	23050.22
800.60	23327.92
800.79	22993.53
800.97	23132.79
801.16	23317.84
801.34	23077.49
801.53	23037.11
801.71	23196.20
801.90	22913.08
802.08	23184.73
802.27	23042.93
802.45	22792.58
802.64	22943.80
802.82	22961.33
803.00	22657.42
803.19	22802.33
803.37	22948.96
803.56	22762.93
803.74	22765.06
803.93	22859.02
804.11	22822.81
804.30	22729.09
804.48	22894.32
804.67	22905.30
804.85	22802.25
805.03	23016.71
805.22	22811.67
805.40	22726.64
805.59	22932.50
805.77	22877.70
805.96	22815.11
806.14	22688.87
806.32	22818.55
806.51	22841.81
806.69	22606.87
806.88	22472.93
807.06	22545.35
807.25	22530.69
807.43	22571.97
807.61	22670.52
807.80	22568.04
807.98	22778.82
808.17	22620.47
808.35	22582.13
808.53	22763.50
808.72	22491.37
808.90	22516.27
809.09	22638.90
809.27	22580.17
809.45	22430.09
809.64	22588.77
809.82	22398.55
810.01	22445.74
810.19	22385.94
810.37	22280.10
810.56	22150.17
810.74	22260.68
810.93	22026.40
811.11	22170.74
811.29	22114.62
811.48	22236.93
811.66	22156.56
811.84	22090.54
812.03	22045.40
812.21	22122.57
812.40	22162.13
812.58	22216.61
812.76	21948.16
812.95	22214.40
813.13	21845.19
813.31	21990.76
813.50	22011.73
813.68	21933.58
813.86	21996.09
814.05	22134.53
814.23	21810.87
814.42	22009.93
814.60	21908.51
814.78	21987.73
814.97	22112.25
815.15	21934.81
815.33	22066.54
815.52	21836.92
815.70	21760.98
815.88	21784.49
816.07	21476.80
816.25	21545.37
816.43	21471.23
816.62	21373.09
816.80	21473.28
816.98	21439.94
817.17	21441.25
817.35	21439.12
817.53	21487.94
817.72	21555.36
817.90	21355.81
818.08	21351.06
818.26	21436.83
818.45	21270.94
818.63	21411.51
818.81	21446.25
819.00	21169.53
819.18	21451.82
819.36	21354.58
819.55	21348.93
819.73	21191.56
819.91	21294.53
820.09	21206.14
820.28	21365.56
820.46	20965.79
820.64	21275.45
820.83	20958.26
821.01	21046.40
821.19	20965.30
821.38	21070.40
821.56	20904.19
821.74	21081.71
821.92	20976.36
822.11	21115.30
822.29	20815.31
822.47	20898.95
822.65	20887.81
822.84	20922.13
823.02	20734.29
823.20	21093.75
823.39	20903.29
823.57	21020.35
823.75	20993.24
823.93	20846.93
824.12	20909.19
824.30	20766.89
824.48	20669.82
824.66	20912.22
824.85	20439.22
825.03	20699.56
825.21	20703.00
825.39	20620.01
825.58	20647.95
825.76	20566.60
825.94	20640.41
826.12	20627.39
826.31	20509.18
826.49	20574.47
826.67	20539.73
826.85	20430.70
827.03	20448.39
827.22	20496.40
827.40	20434.47
827.58	20455.44
827.76	20509.92
827.95	20335.02
828.13	20449.95
828.31	20399.00
828.49	20519.17
828.67	20474.69
828.86	20401.70
829.04	20513.36
829.22	20447.41
829.40	20373.44
829.58	20371.23
829.77	20358.04
829.95	20335.59
830.13	20290.37
830.31	20140.46
830.49	20156.03
830.68	20103.03
830.86	19985.88
831.04	19987.77
831.22	19968.27
831.40	19944.10
831.59	20131.21
831.77	19930.75
831.95	20104.01
832.13	19792.80
832.31	19956.23
832.50	19850.39
832.68	19728.82
832.86	19784.28
833.04	19910.93
833.22	19678.28
833.40	19988.75
833.59	19733.82
833.77	19981.21
833.95	19550.73
834.13	20161.43
834.31	19828.76
834.49	19903.80
834.67	19724.97
834.86	19810.82
835.04	19678.85
835.22	19751.35
835.40	19689.99
835.58	19681.23
835.76	19751.10
835.95	19783.38
836.13	19658.12
836.31	19564.74
836.49	19662.30
836.67	19647.15
836.85	19499.20
837.03	19464.96
837.21	19508.54
837.40	19356.75
837.58	19205.20
837.76	19366.41
837.94	19334.05
838.12	19455.70
838.30	19271.47
838.48	19273.02
838.66	19218.63
838.85	19210.19
839.03	19177.51
839.21	19113.61
839.39	19052.09
839.57	19077.32
839.75	19004.74
839.93	18999.58
840.11	19133.11
840.29	19005.56
840.47	19103.62
840.66	19091.82
840.84	19043.82
841.02	19003.59
841.20	18940.11
841.38	18892.51
841.56	18899.72
841.74	19073.55
841.92	18805.02
842.10	18785.61
842.28	18853.52
842.46	18734.24
842.65	18676.98
842.83	18771.52
843.01	18839.02
843.19	18582.61
843.37	18744.98
843.55	18610.06
843.73	18713.60
843.91	18747.68
844.09	18697.55
844.27	18856.55
844.45	18634.06
844.63	18708.77
844.81	18656.42
844.99	18752.43
845.17	18605.55
845.35	18696.73
845.54	18574.26
845.72	18606.29
845.90	18530.02
846.08	18514.21
846.26	18405.50
846.44	18468.42
846.62	18311.79
846.80	18267.64
846.98	18352.50
847.16	18348.82
847.34	18393.38
847.52	18360.70
847.70	18251.74
847.88	18341.03
848.06	18256.74
848.24	18338.74
848.42	18280.41
848.60	18169.99
848.78	18263.87
848.96	18181.95
849.14	18194.15
849.32	18312.77
849.50	18107.57
849.68	18309.09
849.86	18262.39
850.04	18227.99
850.22	18190.63
850.40	18022.62
850.58	18146.56
850.76	18373.97
850.94	17897.04
851.12	18047.68
851.30	17880.49
851.48	18031.14
851.66	17871.48
851.84	17892.45
852.02	17852.64
852.20	18080.61
852.38	17958.23
852.56	18015.00
852.74	18024.58
852.92	17917.92
853.10	17806.60
853.28	17869.18
853.46	17543.23
853.64	17813.15
853.82	17577.39
854.00	17618.27
854.18	17525.53
854.36	17439.76
854.54	17526.52
854.72	17414.12
854.90	17407.82
855.07	17470.07
855.25	17390.53
855.43	17436.32
855.61	17418.30
855.79	17258.31
855.97	17426.99
856.15	17348.83
856.33	17316.07
856.51	17453.94
856.69	17268.31
856.87	17420.51
857.05	17272.08
857.23	17307.06
857.41	17123.31
857.59	17117.41
857.77	17105.78
857.94	17084.65
858.12	17114.87
858.30	17015.18
858.48	16999.12
858.66	16942.93
858.84	17068.10
859.02	16913.85
859.20	16852.65
859.38	17122.00
859.56	17033.04
859.74	17000.27
859.92	17071.21
860.09	16981.76
860.27	17086.37
860.45	16968.73
860.63	16976.43
860.81	17048.85
860.99	16865.43
861.17	16702.17
861.35	16480.41
861.53	16321.00
861.70	16351.06
861.88	16628.52
862.06	16615.50
862.24	16410.29
862.42	16319.03
862.60	16516.70
862.78	16525.63
862.96	16574.37
863.14	16399.48
863.31	16457.80
863.49	16366.47
863.67	16340.50
863.85	16340.99
864.03	16437.32
864.21	16390.06
864.39	16437.73
864.56	16307.48
864.74	16400.30
864.92	16247.85
865.10	16165.85
865.28	16186.24
865.46	16351.80
865.64	16058.86
865.81	16243.18
865.99	16011.59
866.17	16236.38
866.35	16063.28
866.53	16103.10
866.71	16114.73
866.88	16145.61
867.06	15938.85
867.24	16053.78
867.42	15944.34
867.60	16031.01
867.78	15905.67
867.95	16165.60
868.13	15939.50
868.31	16086.63
868.49	16012.08
868.67	15960.31
868.84	15854.72
869.02	15908.38
869.20	15645.58
869.38	15833.99
869.56	15686.46
869.73	15647.38
869.91	15690.14
870.09	15668.52
870.27	15559.98
870.45	15600.69
870.62	15424.24
870.80	15612.32
870.98	15542.20
871.16	15573.90
871.34	15552.85
871.51	15619.37
871.69	15432.35
871.87	15464.87
872.05	15482.89
872.23	15433.57
872.40	15333.72
872.58	15487.23
872.76	15332.98
872.94	15409.41
873.11	15346.99
873.29	15295.95
873.47	15389.01
873.65	15276.04
873.83	15227.88
874.00	15226.32
874.18	15185.85
874.36	15185.44
874.54	15184.30
874.71	15167.17
874.89	15034.71
875.07	15136.54
875.25	15071.58
875.42	15086.16
875.60	15041.59
875.78	15105.82
875.96	14886.44
876.13	14989.57
876.31	14686.64
876.49	14684.02
876.66	14567.78
876.84	14887.26
877.02	14647.89
877.20	14693.44
877.37	14702.70
877.55	14715.39
877.73	14696.80
877.91	14676.89
878.08	14780.68
878.26	14716.54
878.44	14783.96
878.61	14822.05
878.79	14691.31
878.97	14695.98
879.15	14830.65
879.32	14716.87
879.50	14715.64
879.68	14824.84
879.85	14634.13
880.03	14770.20
880.21	14558.19
880.38	14704.66
880.56	14510.19
880.74	14691.88
880.92	14486.43
881.09	14614.63
881.27	14544.26
881.45	14566.46
881.62	14501.01
881.80	14455.46
881.98	14408.44
882.15	14582.11
882.33	14477.91
882.51	14579.49
882.68	14504.37
882.86	14633.64
883.04	14511.82
883.21	14507.32
883.39	14594.48
883.57	14394.19
883.74	14450.47
883.92	14410.49
884.10	14407.13
884.27	14389.60
884.45	14305.96
884.63	14496.18
884.80	14349.71
884.98	14375.84
885.16	14375.43
885.33	14369.78
885.51	14384.03
885.69	14390.01
885.86	14310.14
886.04	14430.32
886.21	14248.95
886.39	14358.88
886.57	14175.30
886.74	14427.12
886.92	14394.76
887.10	14401.32
887.27	14432.28
887.45	14418.85
887.62	14398.20
887.80	14417.86
887.98	14562.37
888.15	14512.48
888.33	14392.96
888.51	14478.57
888.68	14375.84
888.86	14437.28
889.03	14301.05
889.21	14375.51
889.39	14387.72
889.56	14317.43
889.74	14334.47
889.91	14390.26
890.09	14294.49
890.27	14338.65
890.44	14320.63
890.62	14328.98
890.79	14342.50
890.97	14371.42
891.14	14334.22
891.32	14400.33
891.50	14333.00
891.67	14454.73
891.85	14419.17
892.02	14414.01
892.20	14485.69
892.38	14413.03
892.55	14352.66
892.73	14458.74
892.90	14302.60
893.08	14450.63
893.25	14389.27
893.43	14468.65
893.60	14313.91
893.78	14450.55
893.96	14412.13
894.13	14470.70
894.31	14526.82
894.48	14471.68
894.66	14441.87
894.83	14518.46
895.01	14533.37
895.18	14574.98
895.36	14542.79
895.53	14693.68
895.71	14574.00
895.89	14587.52
896.06	14528.95
896.24	14599.97
896.41	14547.05
896.59	14542.30
896.76	14341.19
896.94	14413.77
897.11	14385.92
897.29	14377.97
897.46	14243.62
897.64	14327.26
897.81	14228.47
897.99	14142.62
898.16	14303.10
898.34	14277.37
898.51	14243.54
898.69	14148.02
898.86	14246.24
899.04	14271.31
899.21	14227.73
899.39	14328.00
899.56	14283.68
899.74	14488.81
899.91	14252.63
900.09	14287.53
900.26	14319.89
900.44	14196.93
900.61	14211.67
900.79	14336.35
900.96	14152.86
901.14	14193.49
901.31	14115.99
901.49	14078.39
901.66	14115.34
901.84	14081.42
902.01	13976.40
902.19	14038.99
902.36	13928.81
902.54	13964.44
902.71	13895.71
902.88	14002.78
903.06	13833.70
903.23	14019.41
903.41	13907.59
903.58	13883.51
903.76	13807.57
903.93	13917.75
904.11	13963.38
904.28	13898.66
904.45	13891.13
904.63	13824.20
904.80	13728.44
904.98	13799.87
905.15	13677.65
905.33	13810.44
905.50	13645.37
905.68	13723.68
905.85	13602.04
906.02	13565.58
906.20	13647.58
906.37	13471.70
906.55	13415.92
906.72	13516.18
906.90	13357.84
907.07	13329.00
907.24	13478.26
907.42	13313.76
907.59	13350.79
907.77	13304.75
907.94	13262.73
908.11	13352.76
908.29	13272.23
908.46	13335.14
908.64	13250.36
908.81	13306.55
908.98	13195.72
909.16	13304.34
909.33	13235.12
909.51	13202.35
909.68	13170.08
909.85	13212.02
910.03	13156.56
910.20	13071.04
910.37	13067.43
910.55	13077.02
910.72	13064.40
910.90	13006.65
911.07	12978.80
911.24	12912.69
911.42	13039.34
911.59	12855.67
911.76	12899.99
911.94	12774.74
912.11	12747.79
912.29	12712.15
912.46	12620.07
912.63	12640.80
912.81	12493.43
912.98	12586.41
913.15	12486.06
913.33	12518.09
913.50	12506.62
913.67	12448.05
913.85	12427.32
914.02	12417.82
914.19	12381.12
914.37	12310.18
914.54	12301.98
914.71	12311.24
914.89	12283.14
915.06	12306.82
915.23	12255.78
915.41	12225.96
915.58	12191.89
915.75	12093.83
915.93	12120.29
916.10	12090.80
916.27	12011.42
916.45	11999.95
916.62	11925.40
916.79	11983.32
916.97	11861.10
917.14	11824.40
917.31	11729.95
917.49	11756.82
917.66	11714.71
917.83	11732.89
918.00	11711.19
918.18	11711.10
918.35	11690.13
918.52	11756.57
918.70	11670.15
918.87	11700.05
919.04	11755.75
919.21	11693.25
919.39	11642.37
919.56	11624.02
919.73	11528.75
919.91	11527.28
920.08	11466.66
920.25	11378.27
920.42	11432.01
920.60	11272.59
920.77	11201.00
920.94	11247.53
921.11	11148.57
921.29	11198.87
921.46	11051.74
921.63	11201.08
921.81	11113.83
921.98	11123.42
922.15	11080.00
922.32	11156.84
922.50	11044.78
922.67	11069.27
922.84	11006.11
923.01	10993.50
923.19	10933.53
923.36	10927.31
923.53	10761.17
923.70	10830.72
923.87	10793.37
924.05	10782.23
924.22	10657.88
924.39	10734.06
924.56	10624.04
924.74	10663.36
924.91	10600.29
925.08	10598.48
925.25	10562.44
925.43	10546.63
925.60	10451.85
925.77	10601.52
925.94	10509.36
926.11	10481.42
926.29	10420.39
926.46	10457.50
926.63	10386.97
926.80	10385.66
926.97	10318.57
927.15	10392.70
927.32	10283.42
927.49	10291.37
927.66	10297.60
927.83	10308.08
928.01	10215.92
928.18	10211.34
928.35	10123.76
928.52	10239.93
928.69	10115.74
928.87	10101.89
929.04	10088.13
929.21	10138.67
929.38	9986.88
929.55	10017.11
929.72	9924.87
929.90	9952.39
930.07	9909.96
930.24	9880.47
930.41	9797.89
930.58	9823.37
930.75	9846.31
930.93	9760.13
931.10	9735.22
931.27	9672.15
931.44	9644.54
931.61	9607.19
931.78	9635.69
931.95	9555.25
932.13	9570.73
932.30	9614.39
932.47	9499.71
932.64	9559.18
932.81	9521.50
932.98	9497.33
933.15	9499.46
933.33	9388.13
933.50	9458.83
933.67	9370.77
933.84	9359.22
934.01	9377.24
934.18	9342.83
934.35	9317.68
934.52	9265.26
934.70	9264.76
934.87	9247.15
935.04	9178.34
935.21	9189.40
935.38	9180.22
935.55	9115.67
935.72	9207.34
935.89	9084.71
936.06	9145.74
936.24	9050.22
936.41	9140.74
936.58	9054.81
936.75	9072.09
936.92	9033.59
937.09	9031.71
937.26	8937.34
937.43	8954.29
937.60	8950.69
937.77	8939.47
937.94	8947.74
938.12	8885.48
938.29	8881.71
938.46	8883.02
938.63	8783.90
938.80	8848.13
938.97	8740.57
939.14	8783.74
939.31	8722.63
939.48	8766.37
939.65	8677.00
939.82	8654.96
939.99	8624.90
940.16	8655.37
940.33	8569.52
940.50	8585.49
940.67	8523.48
940.85	8559.03
941.02	8530.45
941.19	8552.48
941.36	8516.85
941.53	8567.06
941.70	8558.71
941.87	8472.04
942.04	8484.90
942.21	8520.86
942.38	8474.49
942.55	8422.23
942.72	8429.85
942.89	8362.27
943.06	8292.31
943.23	8300.25
943.40	8284.69
943.57	8297.22
943.74	8235.37
943.91	8267.73
944.08	8248.97
944.25	8270.11
944.42	8185.65
944.59	8135.51
944.76	8180.41
944.93	8148.29
945.10	8108.24
945.27	8097.26
945.44	8019.03
945.61	8044.83
945.78	7977.99
945.95	8002.64
946.12	7913.68
946.29	8002.89
946.46	7963.73
946.63	7941.70
946.80	7956.77
946.97	7897.62
947.14	7880.17
947.31	7934.49
947.48	7861.41
947.65	7829.22
947.82	7817.26
947.99	7857.97
948.16	7764.10
948.33	7850.19
948.50	7728.79
948.67	7716.75
948.84	7754.18
949.01	7705.20
949.18	7711.99
949.35	7733.13
949.52	7637.94
949.68	7679.72
949.85	7669.64
950.02	7675.62
950.19	7597.55
950.36	7592.39
950.53	7562.17
950.70	7551.35
950.87	7467.30
951.04	7568.96
951.21	7453.79
951.38	7442.48
951.55	7466.98
951.72	7460.67
951.89	7451.41
952.06	7461.49
952.23	7417.33
952.39	7411.03
952.56	7344.67
952.73	7365.48
952.90	7327.63
953.07	7373.75
953.24	7294.78
953.41	7305.68
953.58	7227.94
953.75	7306.50
953.92	7264.31
954.09	7234.98
954.25	7202.38
954.42	7211.47
954.59	7165.35
954.76	7166.50
954.93	7146.51
955.10	7168.79
955.27	7090.97
955.44	7169.86
955.61	7106.53
955.77	7129.31
955.94	7059.02
956.11	7056.07
956.28	7036.82
956.45	7045.42
956.62	7047.47
956.79	7015.60
956.96	6993.65
957.12	6987.01
957.29	6936.06
957.46	6915.01
957.63	6875.52
957.80	6902.97
957.97	6860.12
958.14	6915.01
958.30	6789.26
958.47	6835.46
958.64	6832.60
958.81	6904.77
958.98	6848.41
959.15	6835.05
959.32	6863.64
959.48	6825.47
959.65	6816.87
959.82	6862.83
959.99	6817.36
960.16	6857.42
960.33	6809.66
960.49	6766.41
960.66	6688.67
960.83	6733.39
961.00	6682.36
961.17	6677.20
961.33	6621.25
961.50	6625.10
961.67	6548.58
961.84	6611.17
962.01	6543.18
962.18	6590.28
962.34	6555.47
962.51	6537.44
962.68	6444.71
962.85	6543.51
963.02	6447.01
963.18	6484.52
963.35	6439.14
963.52	6450.61
963.69	6455.28
963.86	6478.22
964.02	6424.48
964.19	6482.23
964.36	6392.61
964.53	6394.99
964.69	6360.34
964.86	6412.27
965.03	6332.07
965.20	6398.43
965.37	6280.55
965.53	6341.41
965.70	6289.39
965.87	6303.07
966.04	6278.58
966.20	6274.32
966.37	6278.33
966.54	6184.21
966.71	6238.60
966.87	6177.82
967.04	6181.26
967.21	6149.64
967.38	6154.97
967.54	6142.19
967.71	6130.88
967.88	6115.32
968.05	6074.36
968.21	6059.37
968.38	6043.31
968.55	6062.97
968.72	6040.69
968.88	6007.84
969.05	6049.37
969.22	6023.65
969.39	6015.21
969.55	6008.99
969.72	6003.74
969.89	5998.58
970.05	6036.43
970.22	6029.22
970.39	6028.73
970.56	6017.01
970.72	6003.01
970.89	6047.90
971.06	5954.92
971.22	6014.88
971.39	5976.71
971.56	5987.44
971.73	5928.79
971.89	5969.67
972.06	5930.34
972.23	5953.12
972.39	5889.96
972.56	5913.63
972.73	5851.29
972.89	5882.42
973.06	5862.11
973.23	5839.74
973.39	5789.77
973.56	5825.32
973.73	5794.03
973.89	5818.12
974.06	5770.19
974.23	5801.40
974.39	5762.82
974.56	5748.73
974.73	5746.11
974.89	5718.01
975.06	5697.04
975.23	5744.06
975.39	5686.72
975.56	5691.22
975.73	5680.16
975.89	5645.59
976.06	5670.33
976.23	5620.45
976.39	5639.86
976.56	5628.31
976.73	5623.15
976.89	5603.98
977.06	5593.49
977.23	5589.89
977.39	5605.37
977.56	5604.39
977.72	5549.09
977.89	5561.96
978.06	5522.88
978.22	5536.07
978.39	5520.26
978.56	5535.33
978.72	5493.39
978.89	5488.47
979.05	5468.40
979.22	5477.50
979.39	5422.37
979.55	5457.92
979.72	5426.54
979.88	5441.94
980.05	5383.86
980.22	5428.02
980.38	5384.44
980.55	5362.57
980.71	5359.53
980.88	5367.64
981.05	5359.37
981.21	5343.64
981.38	5318.98
981.54	5330.45
981.71	5298.91
981.88	5288.59
982.04	5273.19
982.21	5275.90
982.37	5263.36
982.54	5263.77
982.70	5258.61
982.87	5278.19
983.04	5199.79
983.20	5272.78
983.37	5238.21
983.53	5242.88
983.70	5241.33
983.86	5242.47
984.03	5200.53
984.20	5216.59
984.36	5198.07
984.53	5188.00
984.69	5126.72
984.86	5133.36
985.02	5125.98
985.19	5126.72
985.35	5109.93
985.52	5136.39
985.68	5101.16
985.85	5113.94
986.02	5099.93
986.18	5090.68
986.35	5088.87
986.51	5132.95
986.68	5081.17
986.84	5093.13
987.01	5058.65
987.17	5086.66
987.34	5052.75
987.50	5006.71
987.67	5026.78
987.83	5042.43
988.00	5016.21
988.16	5023.83
988.33	4998.60
988.49	5014.25
988.66	4983.85
988.82	5006.87
988.99	4988.20
989.15	4969.60
989.32	4924.14
989.48	4946.83
989.65	4925.04
989.81	4942.49
989.98	4892.19
990.14	4876.71
990.31	4896.28
990.47	4888.91
990.64	4871.63
990.80	4839.02
990.97	4805.27
991.13	4828.95
991.30	4825.59
991.46	4803.55
991.63	4788.64
991.79	4827.14
991.95	4751.37
992.12	4813.38
992.28	4774.55
992.45	4789.05
992.61	4795.85
992.78	4790.28
992.94	4751.78
993.11	4798.23
993.27	4758.50
993.44	4778.81
993.60	4756.12
993.76	4746.37
993.93	4764.39
994.09	4771.28
994.26	4722.12
994.42	4746.29
994.59	4699.27
994.75	4742.85
994.91	4691.00
995.08	4683.38
995.24	4651.35
995.41	4685.34
995.57	4669.94
995.74	4635.95
995.90	4639.88
996.06	4649.05
996.23	4625.46
996.39	4623.99
996.56	4599.33
996.72	4610.80
996.88	4615.14
997.05	4646.27
997.21	4573.03
997.38	4592.37
997.54	4553.86
997.70	4606.54
997.87	4584.17
998.03	4592.61
998.20	4536.74
998.36	4554.11
998.52	4532.65
998.69	4570.08
998.85	4521.51
999.02	4533.96
999.18	4506.68
999.34	4516.18
999.51	4499.22
999.67	4511.02
999.83	4508.64
1000.00	4529.62
1000.16	4480.05
1000.33	4485.95
1000.49	4473.26
1000.65	4506.10
1000.82	4498.24
1000.98	4486.20
1001.14	4482.92
1001.31	4487.43
1001.47	4480.14
1001.63	4470.06
1001.80	4451.63
1001.96	4425.82
1002.12	4414.11
1002.29	4422.06
1002.45	4423.61
1002.61	4416.57
1002.78	4416.90
1002.94	4395.84
1003.10	4385.11
1003.27	4387.32
1003.43	4374.95
1003.59	4373.89
1003.76	4367.42
1003.92	4366.19
1004.08	4357.26
1004.25	4381.67
1004.41	4340.87
1004.57	4339.73
1004.74	4297.21
1004.90	4348.25
1005.06	4300.57
1005.23	4330.14
1005.39	4310.32
1005.55	4306.88
1005.71	4307.86
1005.88	4297.87
1006.04	4290.00
1006.20	4280.91
1006.37	4245.28
1006.53	4256.42
1006.69	4261.90
1006.85	4269.85
1007.02	4243.15
1007.18	4253.79
1007.34	4231.84
1007.51	4246.75
1007.67	4216.77
1007.83	4229.96
1007.99	4223.98
1008.16	4220.62
1008.32	4184.49
1008.48	4225.86
1008.64	4182.94
1008.81	4217.67
1008.97	4159.26
1009.13	4173.02
1009.29	4175.07
1009.46	4159.18
1009.62	4145.58
1009.78	4154.35
1009.95	4164.59
1010.11	4156.39
1010.27	4147.38
1010.43	4151.48
1010.59	4152.46
1010.76	4134.19
1010.92	4124.28
1011.08	4121.66
1011.24	4124.77
1011.41	4157.62
1011.57	4091.68
1011.73	4102.08
1011.89	4089.30
1012.06	4102.57
1012.22	4083.49
1012.38	4083.90
1012.54	4085.21
1012.70	4070.79
1012.87	4059.24
1013.03	4077.18
1013.19	4077.34
1013.35	4066.36
1013.51	4041.38
1013.68	4073.16
1013.84	4040.15
1014.00	4038.10
1014.16	4026.96
1014.32	4031.96
1014.49	4026.80
1014.65	4046.62
1014.81	3982.64
1014.97	4007.55
1015.13	3992.39
1015.30	4012.79
1015.46	3997.96
1015.62	4002.14
1015.78	4002.30
1015.94	3967.00
1016.10	3956.68
1016.27	3962.00
1016.43	3950.70
1016.59	3976.34
1016.75	3965.85
1016.91	3964.79
1017.07	3947.25
1017.24	3943.32
1017.40	3925.22
1017.56	3957.82
1017.72	3918.34
1017.88	3929.97
1018.04	3919.16
1018.21	3929.48
1018.37	3934.39
1018.53	3928.74
1018.69	3929.64
1018.85	3922.60
1019.01	3890.24
1019.17	3923.99
1019.34	3892.12
1019.50	3881.15
1019.66	3855.34
1019.82	3876.89
1019.98	3858.13
1020.14	3892.62
1020.30	3882.05
1020.46	3881.31
1020.63	3832.08
1020.79	3856.82
1020.95	3862.22
1021.11	3847.15
1021.27	3826.18
1021.43	3815.28
1021.59	3824.79
1021.75	3827.08
1021.91	3792.02
1022.07	3806.85
1022.24	3776.45
1022.40	3823.64
1022.56	3799.39
1022.72	3819.46
1022.88	3782.02
1023.04	3804.55
1023.20	3775.47
1023.36	3799.56
1023.52	3795.05
1023.68	3785.38
1023.84	3767.20
1024.01	3768.34
1024.17	3761.30
1024.33	3770.72
1024.49	3791.28
1024.65	3745.00
1024.81	3754.99
1024.97	3745.57
1025.13	3741.64
1025.29	3757.53
1025.45	3723.04
1025.61	3765.07
1025.77	3727.96
1025.93	3751.06
1026.09	3722.31
1026.25	3763.27
1026.41	3731.40
1026.57	3727.22
1026.73	3739.18
1026.90	3712.89
1027.06	3727.63
1027.22	3739.51
1027.38	3717.88
1027.54	3756.47
1027.70	3708.46
1027.86	3712.64
1028.02	3724.03
1028.18	3700.35
1028.34	3689.46
1028.50	3706.99
1028.66	3686.92
1028.82	3717.72
1028.98	3691.83
1029.14	3668.81
1029.30	3679.54
1029.46	3687.49
1029.62	3682.08
1029.78	3634.82
1029.94	3667.01
1030.10	3667.99
1030.26	3643.42
1030.42	3632.61
1030.58	3634.00
1030.74	3654.72
1030.90	3625.97
1031.06	3628.02
1031.22	3614.01
1031.38	3632.77
1031.54	3609.01
1031.70	3647.60
1031.86	3607.62
1032.02	3620.81
1032.18	3594.92
1032.34	3614.66
1032.50	3596.81
1032.66	3630.88
1032.82	3598.36
1032.98	3595.33
1033.14	3595.25
1033.30	3633.92
1033.45	3589.52
1033.61	3602.46
1033.77	3602.54
1033.93	3601.97
1034.09	3584.85
1034.25	3594.59
1034.41	3550.44
1034.57	3593.37
1034.73	3568.30
1034.89	3591.40
1035.05	3587.88
1035.21	3588.70
1035.37	3572.72
1035.53	3563.30
1035.69	3559.45
1035.85	3588.37
1036.01	3548.80
1036.16	3555.03
1036.32	3551.75
1036.48	3551.01
1036.64	3534.22
1036.80	3541.02
1036.96	3527.34
1037.12	3527.42
1037.28	3539.63
1037.44	3518.90
1037.60	3515.71
1037.76	3513.58
1037.91	3507.52
1038.07	3525.46
1038.23	3519.15
1038.39	3527.42
1038.55	3517.84
1038.71	3521.28
1038.87	3492.20
1039.03	3518.90
1039.19	3510.79
1039.35	3494.57
1039.50	3505.06
1039.66	3505.96
1039.82	3490.15
1039.98	3502.93
1040.14	3492.03
1040.30	3485.72
1040.46	3489.98
1040.62	3484.25
1040.77	3488.84
1040.93	3513.90
1041.09	3486.71
1041.25	3491.87
1041.41	3499.81
1041.57	3487.53
1041.73	3487.53
1041.88	3487.53

