SpectraSuite Data File
++++++++++++++++++++++++++++++++++++
Date: Tue Sep 20 11:57:17 EDT 2022
User: Laboratoire
Dark Spectrum Present: No
Reference Spectrum Present: No
Number of Sampled Component Spectra: 1
Spectrometers: FLMT00174
Integration Time (usec): 15000 (FLMT00174)
Spectra Averaged: 25 (FLMT00174)
Boxcar Smoothing: 0 (FLMT00174)
Correct for Electrical Dark: No (FLMT00174)
Strobe/Lamp Enabled: No (FLMT00174)
Correct for Detector Non-linearity: No (FLMT00174)
Correct for Stray Light: No (FLMT00174)
Number of Pixels in Processed Spectrum: 3648
>>>>>Begin Processed Spectral Data<<<<<
345.74	3143.71
345.96	3143.71
346.18	3143.71
346.39	3171.32
346.61	3205.56
346.83	3203.51
347.05	3226.78
347.27	3208.02
347.49	3217.77
347.71	3220.72
347.93	3221.62
348.15	3227.76
348.36	3206.96
348.58	3210.72
348.80	3206.63
349.02	3214.41
349.24	3216.87
349.46	3306.08
349.68	3323.20
349.90	3347.28
350.11	3298.79
350.33	3338.11
350.55	3324.02
350.77	3331.55
350.99	3318.53
351.21	3320.99
351.43	3318.86
351.65	3342.78
351.86	3321.89
352.08	3336.39
352.30	3308.04
352.52	3342.45
352.74	3321.81
352.96	3312.30
353.18	3335.73
353.39	3335.81
353.61	3326.56
353.83	3354.98
354.05	3328.93
354.27	3331.47
354.49	3340.81
354.70	3329.34
354.92	3336.47
355.14	3314.76
355.36	3318.69
355.58	3328.85
355.80	3329.26
356.02	3336.80
356.23	3333.03
356.45	3332.95
356.67	3336.80
356.89	3346.38
357.11	3336.39
357.33	3374.15
357.54	3322.13
357.76	3331.47
357.98	3296.74
358.20	3346.14
358.42	3327.05
358.63	3323.36
358.85	3341.14
359.07	3333.60
359.29	3321.56
359.51	3327.29
359.73	3337.45
359.94	3335.57
360.16	3329.18
360.38	3329.26
360.60	3327.13
360.82	3335.65
361.03	3335.49
361.25	3326.31
361.47	3329.67
361.69	3371.04
361.91	3341.14
362.12	3343.43
362.34	3317.22
362.56	3357.36
362.78	3338.27
363.00	3345.64
363.21	3334.91
363.43	3353.02
363.65	3325.66
363.87	3336.71
364.09	3339.01
364.30	3340.56
364.52	3320.74
364.74	3336.14
364.96	3334.83
365.17	3344.41
365.39	3333.19
365.61	3330.73
365.83	3334.75
366.05	3338.35
366.26	3324.02
366.48	3349.82
366.70	3353.02
366.92	3347.04
367.13	3332.86
367.35	3351.79
367.57	3351.54
367.79	3330.73
368.01	3346.54
368.22	3351.13
368.44	3339.17
368.66	3348.02
368.88	3350.89
369.09	3350.97
369.31	3344.66
369.53	3345.81
369.75	3329.01
369.96	3375.13
370.18	3340.32
370.40	3375.22
370.62	3352.44
370.83	3338.27
371.05	3364.57
371.27	3358.18
371.49	3334.83
371.70	3350.72
371.92	3354.16
372.14	3362.19
372.36	3346.14
372.57	3369.81
372.79	3361.29
373.01	3363.67
373.22	3351.54
373.44	3350.48
373.66	3360.88
373.88	3368.50
374.09	3345.15
374.31	3349.82
374.53	3353.75
374.75	3352.12
374.96	3363.50
375.18	3374.23
375.40	3364.98
375.61	3357.93
375.83	3351.30
376.05	3363.09
376.27	3350.31
376.48	3364.81
376.70	3360.72
376.92	3372.10
377.13	3358.34
377.35	3353.51
377.57	3368.74
377.79	3352.28
378.00	3353.67
378.22	3365.55
378.44	3359.65
378.65	3381.03
378.87	3361.21
379.09	3364.32
379.30	3364.40
379.52	3364.48
379.74	3363.17
379.96	3377.35
380.17	3371.04
380.39	3369.15
380.61	3372.76
380.82	3390.04
381.04	3373.00
381.26	3401.84
381.47	3402.00
381.69	3407.16
381.91	3367.27
382.12	3396.84
382.34	3410.52
382.56	3391.44
382.77	3388.98
382.99	3392.83
383.21	3381.11
383.42	3411.10
383.64	3395.78
383.86	3398.56
384.07	3410.20
384.29	3402.58
384.51	3414.37
384.72	3402.25
384.94	3409.46
385.16	3414.29
385.37	3407.33
385.59	3417.16
385.81	3426.91
386.02	3391.19
386.24	3422.40
386.46	3412.65
386.67	3428.30
386.89	3442.14
387.11	3435.75
387.32	3437.56
387.54	3411.26
387.76	3454.68
387.97	3453.37
388.19	3445.17
388.40	3434.36
388.62	3448.37
388.84	3450.01
389.05	3445.26
389.27	3451.16
389.49	3461.64
389.70	3439.60
389.92	3431.49
390.14	3451.07
390.35	3479.42
390.57	3463.03
390.78	3461.64
391.00	3459.43
391.22	3475.48
391.43	3465.41
391.65	3499.00
391.86	3488.59
392.08	3490.97
392.30	3484.41
392.51	3501.94
392.73	3508.01
392.95	3495.47
393.16	3488.59
393.38	3521.77
393.59	3491.95
393.81	3523.57
394.03	3502.52
394.24	3516.12
394.46	3506.70
394.67	3520.54
394.89	3520.95
395.11	3549.54
395.32	3551.42
395.54	3573.21
395.75	3545.61
395.97	3518.41
396.19	3538.40
396.40	3577.31
396.62	3554.45
396.83	3592.79
397.05	3552.65
397.26	3560.43
397.48	3574.93
397.70	3573.54
397.91	3593.53
398.13	3579.19
398.34	3588.61
398.56	3597.95
398.78	3600.74
398.99	3638.91
399.21	3595.91
399.42	3630.64
399.64	3602.21
399.85	3632.36
400.07	3624.82
400.29	3646.04
400.50	3634.08
400.72	3660.38
400.93	3612.70
401.15	3637.27
401.36	3649.64
401.58	3670.29
401.79	3671.35
402.01	3677.91
402.23	3683.39
402.44	3696.91
402.66	3694.86
402.87	3701.25
403.09	3684.05
403.30	3717.80
403.52	3686.26
403.73	3685.36
403.95	3694.29
404.16	3708.71
404.38	3721.73
404.60	3720.01
404.81	3751.31
405.03	3745.90
405.24	3759.66
405.46	3755.97
405.67	3761.30
405.89	3793.58
406.10	3769.98
406.32	3778.01
406.53	3797.26
406.75	3796.36
406.96	3798.24
407.18	3806.76
407.39	3799.15
407.61	3809.88
407.82	3813.73
408.04	3850.84
408.25	3818.48
408.47	3837.24
408.68	3855.51
408.90	3838.38
409.12	3866.07
409.33	3874.27
409.55	3856.90
409.76	3876.31
409.98	3867.22
410.19	3890.89
410.41	3920.14
410.62	3919.32
410.84	3901.22
411.05	3918.67
411.27	3969.70
411.48	3937.83
411.70	3952.66
411.91	3958.15
412.12	3959.62
412.34	3952.25
412.55	3963.80
412.77	3971.83
412.98	3990.84
413.20	3986.25
413.41	4006.24
413.63	3989.03
413.84	4014.35
414.06	4028.03
414.27	4034.99
414.49	4041.95
414.70	4047.77
414.92	4064.07
415.13	4035.89
415.35	4075.46
415.56	4073.16
415.78	4077.26
415.99	4096.67
416.21	4081.93
416.42	4125.51
416.63	4146.65
416.85	4121.00
417.06	4129.77
417.28	4123.38
417.49	4160.41
417.71	4154.84
417.92	4151.81
418.14	4168.35
418.35	4196.86
418.57	4211.85
418.78	4198.99
418.99	4199.40
419.21	4238.72
419.42	4229.71
419.64	4229.22
419.85	4244.37
420.07	4291.40
420.28	4271.16
420.50	4273.95
420.71	4302.45
420.92	4299.83
421.14	4330.14
421.35	4322.20
421.57	4339.81
421.78	4338.42
422.00	4355.13
422.21	4381.92
422.42	4388.55
422.64	4376.84
422.85	4397.32
423.07	4448.27
423.28	4423.53
423.50	4440.16
423.71	4472.35
423.92	4486.69
424.14	4467.11
424.35	4483.09
424.57	4513.15
424.78	4539.36
424.99	4527.65
425.21	4545.10
425.42	4556.73
425.64	4561.07
425.85	4569.59
426.06	4567.22
426.28	4598.59
426.49	4649.79
426.71	4632.51
426.92	4642.01
427.13	4664.29
427.35	4693.70
427.56	4708.36
427.78	4714.51
427.99	4730.81
428.20	4752.19
428.42	4772.91
428.63	4779.39
428.84	4726.63
429.06	4775.95
429.27	4794.95
429.49	4832.55
429.70	4881.70
429.91	4859.42
430.13	4880.72
430.34	4870.89
430.56	4901.44
430.77	4905.62
430.98	4897.43
431.20	4952.89
431.41	4986.15
431.62	4988.52
431.84	4973.86
432.05	5008.43
432.26	5005.40
432.48	5000.73
432.69	5085.11
432.91	5043.49
433.12	5087.73
433.33	5092.32
433.55	5186.44
433.76	5172.27
433.97	5124.84
434.19	5157.85
434.40	5210.44
434.61	5198.15
434.83	5242.47
435.04	5223.96
435.25	5294.49
435.47	5288.35
435.68	5242.96
435.89	5338.48
436.11	5305.14
436.32	5340.28
436.53	5372.07
436.75	5349.95
436.96	5384.85
437.17	5369.12
437.39	5403.03
437.60	5438.01
437.81	5450.55
438.03	5470.53
438.24	5446.86
438.45	5564.58
438.67	5505.19
438.88	5543.52
439.09	5611.43
439.31	5584.48
439.52	5628.06
439.73	5617.41
439.94	5573.59
440.16	5655.02
440.37	5641.74
440.58	5717.03
440.80	5710.47
441.01	5681.72
441.22	5831.47
441.44	5794.85
441.65	5770.03
441.86	5803.12
442.08	5847.20
442.29	5834.99
442.50	5875.54
442.71	5880.13
442.93	5926.82
443.14	5897.82
443.35	5978.51
443.57	5937.96
443.78	6019.55
443.99	6022.83
444.20	5997.27
444.42	6059.12
444.63	6062.23
444.84	6113.19
445.06	6145.95
445.27	6120.40
445.48	6124.00
445.69	6159.80
445.91	6164.14
446.12	6127.52
446.33	6198.79
446.54	6291.03
446.76	6203.63
446.97	6280.96
447.18	6270.88
447.39	6307.74
447.61	6352.23
447.82	6361.32
448.03	6328.80
448.25	6413.26
448.46	6451.43
448.67	6463.47
448.88	6430.46
449.10	6546.21
449.31	6539.00
449.52	6516.88
449.73	6541.54
449.95	6657.86
450.16	6576.11
450.37	6665.32
450.58	6799.09
450.79	6656.31
451.01	6701.77
451.22	6712.01
451.43	6751.01
451.64	6804.09
451.86	6818.10
452.07	6863.23
452.28	6897.07
452.49	6997.17
452.71	6908.13
452.92	6936.63
453.13	6982.43
453.34	7025.35
453.55	7100.23
453.77	7135.86
453.98	7118.41
454.19	7094.08
454.40	7149.13
454.62	7233.18
454.83	7168.79
455.04	7295.93
455.25	7196.89
455.46	7469.11
455.68	7355.89
455.89	7330.99
456.10	7372.69
456.31	7404.06
456.52	7477.79
456.74	7467.22
456.95	7613.12
457.16	7561.92
457.37	7647.12
457.58	7624.75
457.80	7623.85
458.01	7624.59
458.22	7898.36
458.43	7755.66
458.64	7812.59
458.86	7712.08
459.07	7868.46
459.28	7852.81
459.49	7937.60
459.70	8135.35
459.91	8016.98
460.13	8028.53
460.34	8077.35
460.55	8047.62
460.76	8193.76
460.97	8187.78
461.19	8200.39
461.40	8431.73
461.61	8317.54
461.82	8374.64
462.03	8406.50
462.24	8444.51
462.46	8474.00
462.67	8408.71
462.88	8534.46
463.09	8560.10
463.30	8684.78
463.51	8601.14
463.72	8800.45
463.94	8788.49
464.15	8813.39
464.36	8768.91
464.57	8990.58
464.78	8921.61
464.99	9021.06
465.20	8985.67
465.42	9132.55
465.63	9134.76
465.84	9156.80
466.05	9300.48
466.26	9312.69
466.47	9367.65
466.68	9340.70
466.90	9470.79
467.11	9475.13
467.32	9577.04
467.53	9698.03
467.74	9547.38
467.95	9637.25
468.16	9781.26
468.37	9870.72
468.59	9852.53
468.80	10020.87
469.01	9888.17
469.22	10054.30
469.43	10243.53
469.64	10142.85
469.85	10280.15
470.06	10322.50
470.28	10442.02
470.49	10332.33
470.70	10458.24
470.91	10680.24
471.12	10548.02
471.33	10817.62
471.54	10753.15
471.75	10786.24
471.96	11056.33
472.17	11005.13
472.39	11264.48
472.60	11052.23
472.81	11345.09
473.02	11309.62
473.23	11490.25
473.44	11579.46
473.65	11505.90
473.86	11654.33
474.07	11685.87
474.28	11824.23
474.49	12062.13
474.71	11965.71
474.92	12171.32
475.13	12109.80
475.34	12197.62
475.55	12256.68
475.76	12359.33
475.97	12633.43
476.18	12640.88
476.39	12755.90
476.60	12889.10
476.81	12921.70
477.02	13046.05
477.23	13056.37
477.44	13116.83
477.65	13269.94
477.87	13471.29
478.08	13518.64
478.29	13583.44
478.50	13860.24
478.71	13767.84
478.92	13951.42
479.13	14002.54
479.34	14118.70
479.55	14237.72
479.76	14221.91
479.97	14320.30
480.18	14706.87
480.39	14489.62
480.60	14862.03
480.81	14900.20
481.02	14976.30
481.23	15012.18
481.44	15244.92
481.65	15399.09
481.86	15619.94
482.07	15314.38
482.28	15957.04
482.49	15756.83
482.71	15882.49
482.92	16055.17
483.13	16242.52
483.34	16139.14
483.55	16333.29
483.76	16400.38
483.97	16644.17
484.18	16623.53
484.39	16793.51
484.60	16805.71
484.81	17171.07
485.02	17074.00
485.23	17271.67
485.44	17438.86
485.65	17631.95
485.86	17524.30
486.07	17859.11
486.28	17863.12
486.49	18059.07
486.70	18177.77
486.91	18371.34
487.12	18324.98
487.33	18340.87
487.54	18707.95
487.75	18724.09
487.96	18836.97
488.17	18826.49
488.38	19080.92
488.59	19077.32
488.80	19304.89
489.01	19339.79
489.22	19633.79
489.43	19591.36
489.64	19544.18
489.85	20038.64
490.06	19738.40
490.26	20062.80
490.47	19934.93
490.68	20258.18
490.89	20502.79
491.10	20306.02
491.31	20616.00
491.52	20867.82
491.73	20778.85
491.94	20862.00
492.15	21116.44
492.36	21197.30
492.57	21267.09
492.78	21197.05
492.99	21395.38
493.20	21553.81
493.41	21617.38
493.62	21736.65
493.83	21788.99
494.04	21970.04
494.25	22141.41
494.46	22202.11
494.67	22168.77
494.88	22424.19
495.08	22441.81
495.29	22605.23
495.50	22779.23
495.71	22699.03
495.92	22968.22
496.13	23041.78
496.34	22930.86
496.55	23106.41
496.76	23444.90
496.97	23095.52
497.18	23480.62
497.39	23429.91
497.60	23824.92
497.81	23561.80
498.02	23818.61
498.22	23597.19
498.43	24015.38
498.64	24122.20
498.85	24153.33
499.06	24263.76
499.27	24583.16
499.48	24142.44
499.69	24435.05
499.90	24557.60
500.11	24859.72
500.32	25073.53
500.52	24858.98
500.73	25302.82
500.94	25289.79
501.15	25382.28
501.36	25398.66
501.57	25287.83
501.78	25576.18
501.99	25704.38
502.20	25654.99
502.41	25821.85
502.61	25726.01
502.82	26091.45
503.03	25883.13
503.24	26289.69
503.45	26102.02
503.66	26460.25
503.87	26421.83
504.08	26632.36
504.28	26572.39
504.49	26724.85
504.70	26823.97
504.91	26956.51
505.12	26770.15
505.33	27255.27
505.54	27211.12
505.75	27312.04
505.95	27551.08
506.16	27349.72
506.37	27282.96
506.58	27845.33
506.79	27480.14
507.00	27865.40
507.21	27679.85
507.41	27718.36
507.62	27817.48
507.83	28263.03
508.04	27980.58
508.25	28349.54
508.46	28171.28
508.67	28590.63
508.87	28338.24
509.08	28744.06
509.29	28644.28
509.50	28858.58
509.71	28946.24
509.92	29096.80
510.12	28926.99
510.33	29078.13
510.54	29014.23
510.75	29244.67
510.96	29448.73
511.17	29755.35
511.37	29633.78
511.58	29810.40
511.79	29631.16
512.00	29625.59
512.21	30119.64
512.42	30146.67
512.62	30206.15
512.83	30518.26
513.04	30310.27
513.25	30685.86
513.46	30082.37
513.66	30954.47
513.87	30612.79
514.08	30949.07
514.29	30760.82
514.50	30855.19
514.71	31127.40
514.91	30932.85
515.12	31063.10
515.33	31324.26
515.54	31263.31
515.75	31591.39
515.95	31382.42
516.16	31428.70
516.37	31841.98
516.58	31924.23
516.78	31775.22
516.99	32071.11
517.20	32135.17
517.41	32149.18
517.62	32205.78
517.82	32167.85
518.03	32583.43
518.24	32948.38
518.45	32399.52
518.66	32880.38
518.86	32673.62
519.07	33050.04
519.28	32557.87
519.49	33170.05
519.69	33203.47
519.90	33190.94
520.11	33353.55
520.32	33345.93
520.52	33706.13
520.73	33378.86
520.94	33844.81
521.15	33813.27
521.36	33554.90
521.56	34231.80
521.77	33742.25
521.98	34257.68
522.19	33825.07
522.39	34224.92
522.60	34156.76
522.81	34376.14
523.02	34173.23
523.22	34535.22
523.43	34780.41
523.64	34681.86
523.84	34826.53
524.05	35064.17
524.26	35103.90
524.47	34881.99
524.67	35093.34
524.88	35294.12
525.09	35612.78
525.30	35378.50
525.50	35345.32
525.71	35618.11
525.92	35599.84
526.13	35889.75
526.33	35693.23
526.54	35591.16
526.75	35900.81
526.95	36266.74
527.16	35708.06
527.37	36312.53
527.58	36567.63
527.78	36454.01
527.99	36800.77
528.20	36919.72
528.40	36601.13
528.61	36650.78
528.82	36928.81
529.03	36945.60
529.23	36870.65
529.44	37211.92
529.65	37279.34
529.85	37342.09
530.06	37291.46
530.27	37332.75
530.47	37073.64
530.68	37921.83
530.89	37282.94
531.09	37903.81
531.30	37752.83
531.51	37494.13
531.72	38064.12
531.92	37961.64
532.13	38164.72
532.34	38083.54
532.54	38183.31
532.75	38402.04
532.96	38314.87
533.16	38624.94
533.37	38775.01
533.58	38520.90
533.78	38851.77
533.99	38958.92
534.20	38539.82
534.40	38873.48
534.61	38946.06
534.82	39114.24
535.02	39210.33
535.23	39208.85
535.44	39453.87
535.64	39440.60
535.85	39542.26
536.06	39550.04
536.26	39503.76
536.47	39599.28
536.68	40124.95
536.88	39617.30
537.09	40240.13
537.29	39661.70
537.50	40392.17
537.71	40036.23
537.91	40239.88
538.12	40484.33
538.33	40143.71
538.53	40403.06
538.74	40523.98
538.95	40555.11
539.15	40481.38
539.36	40734.92
539.56	41116.17
539.77	40717.22
539.98	40659.06
540.18	41002.55
540.39	40817.33
540.60	41100.44
540.80	41222.25
541.01	41310.97
541.21	41203.82
541.42	41459.41
541.63	41374.29
541.83	41631.03
542.04	41625.46
542.25	41676.57
542.45	41869.33
542.66	41875.80
542.86	42097.06
543.07	41238.06
543.28	42160.80
543.48	42049.06
543.69	42187.50
543.89	42102.22
544.10	42662.71
544.31	42311.44
544.51	42244.84
544.72	42506.41
544.92	42407.70
545.13	42748.48
545.33	42717.84
545.54	42611.84
545.75	42913.30
545.95	42702.20
546.16	42781.82
546.36	43257.44
546.57	42551.47
546.78	41785.94
546.98	42409.58
547.19	41778.73
547.39	42861.77
547.60	43158.57
547.80	43650.82
548.01	43747.23
548.22	43349.44
548.42	43490.25
548.63	43760.75
548.83	43538.91
549.04	43879.04
549.24	43604.04
549.45	43884.45
549.65	44225.15
549.86	43660.48
550.07	43863.56
550.27	44201.56
550.48	44310.10
550.68	44170.84
550.89	44180.01
551.09	44403.08
551.30	44188.37
551.50	44480.57
551.71	44239.98
551.91	44341.72
552.12	44536.52
552.33	44828.81
552.53	44486.22
552.74	44977.49
552.94	45094.14
553.15	44672.01
553.35	45120.93
553.56	44641.62
553.76	45241.84
553.97	44851.50
554.17	45104.87
554.38	45673.88
554.58	45169.59
554.79	45610.72
554.99	45142.15
555.20	45200.23
555.40	45705.34
555.61	45422.06
555.81	45167.54
556.02	46156.05
556.22	45894.73
556.43	45683.30
556.63	45753.83
556.84	45676.42
557.04	46161.54
557.25	45536.91
557.45	45933.89
557.66	45911.36
557.86	45819.20
558.07	46371.91
558.27	46043.25
558.48	46128.37
558.68	46265.33
558.89	46356.67
559.09	46564.34
559.30	46343.16
559.50	46584.33
559.71	46200.70
559.91	46816.98
560.12	46532.23
560.32	46649.86
560.53	46817.88
560.73	46652.24
560.94	46911.76
561.14	46628.48
561.35	47228.54
561.55	46854.25
561.76	47053.80
561.96	46604.64
562.17	47094.27
562.37	47295.63
562.57	47017.84
562.78	47027.92
562.98	47376.73
563.19	47406.63
563.39	47476.83
563.60	47612.82
563.80	47083.13
564.01	47760.35
564.21	47392.04
564.42	47309.06
564.62	47583.82
564.82	47923.21
565.03	47577.02
565.23	47701.53
565.44	47946.63
565.64	47754.70
565.85	48127.02
566.05	47818.43
566.25	48104.16
566.46	47839.89
566.66	48058.62
566.87	48046.66
567.07	48059.60
567.28	48099.41
567.48	48380.39
567.68	47768.95
567.89	48711.18
568.09	48165.11
568.30	48258.91
568.50	48605.75
568.71	48379.17
568.91	48771.64
569.11	48417.18
569.32	48489.02
569.52	48756.32
569.73	48118.50
569.93	48652.86
570.13	48541.04
570.34	48406.61
570.54	48898.37
570.75	48798.51
570.95	48970.95
571.15	48736.09
571.36	49389.47
571.56	48857.00
571.77	48752.31
571.97	48280.95
572.17	49100.46
572.38	48980.37
572.58	49248.73
572.79	48989.13
572.99	49175.42
573.19	49136.26
573.40	49076.62
573.60	49299.20
573.81	49214.08
574.01	49535.04
574.21	49381.77
574.42	49353.59
574.62	49104.56
574.82	49461.15
575.03	49155.43
575.23	49591.56
575.43	49219.00
575.64	49325.00
575.84	49633.75
576.05	49286.83
576.25	49591.97
576.45	49436.00
576.66	49955.69
576.86	49501.53
577.06	49894.91
577.27	49771.46
577.47	49851.41
577.67	49765.72
577.88	49309.03
578.08	49873.69
578.28	49960.61
578.49	49806.27
578.69	49994.36
578.89	49698.88
579.10	49878.77
579.30	50529.70
579.50	50036.55
579.71	49639.57
579.91	50218.65
580.11	49973.71
580.32	50031.30
580.52	50042.85
580.72	50700.58
580.93	50005.99
581.13	50044.90
581.33	50552.55
581.54	50127.23
581.74	50171.06
581.94	50255.76
582.15	50652.25
582.35	50406.16
582.55	50516.34
582.76	50201.04
582.96	50628.41
583.16	50296.06
583.37	50612.27
583.57	50287.05
583.77	50782.50
583.97	49990.26
584.18	50942.32
584.38	50750.71
584.58	50462.36
584.79	50946.58
584.99	50870.40
585.19	50723.03
585.40	50715.32
585.60	51104.11
585.80	50606.70
586.00	50940.19
586.21	50835.99
586.41	50935.85
586.61	51120.17
586.82	50932.16
587.02	50757.10
587.22	51085.68
587.42	50570.66
587.63	51216.50
587.83	50673.79
588.03	50939.78
588.23	50743.42
588.44	51066.59
588.64	50834.27
588.84	51138.44
589.05	51222.40
589.25	51313.58
589.45	51261.56
589.65	51081.91
589.86	51324.64
590.06	51278.60
590.26	51100.75
590.46	51377.88
590.67	50826.73
590.87	51457.10
591.07	51635.11
591.27	51133.03
591.48	51634.04
591.68	50947.32
591.88	51903.97
592.08	51082.40
592.29	51605.70
592.49	51409.09
592.69	51660.67
592.89	51335.12
593.10	51403.52
593.30	51382.72
593.50	51845.89
593.70	50944.86
593.90	51708.67
594.11	51517.96
594.31	51577.93
594.51	51903.72
594.71	51771.99
594.92	51885.21
595.12	51675.17
595.32	51741.36
595.52	51945.50
595.72	51317.10
595.93	52063.46
596.13	51736.28
596.33	51498.14
596.53	52022.01
596.73	51741.77
596.94	51826.63
597.14	52097.79
597.34	51897.41
597.54	52198.30
597.74	51804.35
597.95	51863.50
598.15	51930.84
598.35	52055.52
598.55	52176.43
598.75	51881.77
598.96	52490.01
599.16	52088.77
599.36	52201.00
599.56	52083.12
599.76	51971.71
599.97	52401.62
600.17	52159.06
600.37	52238.77
600.57	51540.49
600.77	52437.34
600.97	52061.33
601.18	52625.67
601.38	52230.08
601.58	52433.49
601.78	52276.12
601.98	52076.98
602.18	52472.89
602.39	52908.70
602.59	52484.44
602.79	52365.09
602.99	52401.13
603.19	52387.61
603.39	52149.64
603.60	52209.60
603.80	52368.45
604.00	52246.22
604.20	52391.55
604.40	52522.29
604.60	52337.32
604.80	52475.51
605.01	52619.69
605.21	52547.85
605.41	52447.17
605.61	52174.30
605.81	52664.58
606.01	52901.08
606.21	52286.69
606.42	52659.91
606.62	52381.22
606.82	52753.38
607.02	52482.39
607.22	52752.73
607.42	53049.60
607.62	52437.17
607.82	52810.07
608.03	52792.21
608.23	52581.68
608.43	52341.25
608.63	53001.35
608.83	52710.62
609.03	52630.99
609.23	52701.69
609.43	52788.52
609.63	52511.88
609.84	52474.53
610.04	53040.01
610.24	52971.53
610.44	52912.39
610.64	52661.63
610.84	52938.60
611.04	53243.58
611.24	53002.17
611.44	52396.46
611.64	52926.80
611.85	52927.21
612.05	52946.71
612.25	53065.49
612.45	52759.44
612.65	53005.53
612.85	53174.03
613.05	52853.40
613.25	53286.02
613.45	53050.50
613.65	53068.28
613.85	52619.94
614.05	53033.05
614.25	53143.40
614.46	52794.83
614.66	52617.97
614.86	52567.67
615.06	52760.51
615.26	53045.67
615.46	52415.47
615.66	53204.18
615.86	53106.45
616.06	52799.50
616.26	52837.84
616.46	53305.27
616.66	52922.38
616.86	53275.37
617.06	52914.11
617.26	53274.79
617.46	53042.47
617.66	52810.56
617.86	52598.72
618.07	52853.90
618.27	52873.23
618.47	52802.29
618.67	52857.66
618.87	53050.17
619.07	52775.91
619.27	52815.15
619.47	52746.58
619.67	53085.40
619.87	52726.02
620.07	52982.26
620.27	52824.00
620.47	52692.76
620.67	52835.63
620.87	52899.44
621.07	53001.60
621.27	52819.82
621.47	52441.84
621.67	52851.36
621.87	52478.38
622.07	53016.83
622.27	52830.63
622.47	52470.60
622.67	52790.16
622.87	52304.88
623.07	52748.30
623.27	53186.57
623.47	52295.78
623.67	52747.73
623.87	53207.21
624.07	52962.93
624.27	52579.39
624.47	52871.10
624.67	52646.15
624.87	52815.80
625.07	52349.19
625.27	52853.08
625.47	52473.71
625.67	52385.48
625.87	52609.70
626.07	52491.57
626.27	52866.10
626.47	52779.19
626.67	52650.57
626.87	52312.25
627.07	52804.09
627.27	52677.69
627.47	53014.87
627.67	52721.68
627.87	52682.69
628.07	52897.64
628.27	52623.62
628.47	52370.33
628.67	52922.05
628.86	52863.56
629.06	52491.32
629.26	52448.32
629.46	52853.73
629.66	52769.93
629.86	52186.18
630.06	52666.47
630.26	52530.64
630.46	52809.09
630.66	52350.59
630.86	52440.53
631.06	52547.36
631.26	52279.97
631.46	52898.05
631.66	52706.44
631.86	52425.79
632.06	52907.39
632.26	52433.16
632.45	52546.04
632.65	52559.97
632.85	52728.23
633.05	52619.36
633.25	52651.06
633.45	52337.15
633.65	52388.11
633.85	52911.16
634.05	52094.18
634.25	52462.73
634.45	52396.54
634.65	52711.85
634.84	52244.34
635.04	52396.05
635.24	51969.42
635.44	52330.11
635.64	52002.19
635.84	52403.18
636.04	52173.40
636.24	52159.96
636.44	52298.40
636.64	51689.09
636.84	52513.85
637.03	51805.99
637.23	52269.24
637.43	52295.21
637.63	52078.70
637.83	52306.92
638.03	52213.62
638.23	51880.05
638.43	52244.01
638.62	52505.09
638.82	51519.68
639.02	52278.09
639.22	51959.92
639.42	52363.94
639.62	51858.58
639.82	51936.24
640.02	52028.24
640.21	52220.50
640.41	51662.80
640.61	52105.90
640.81	52038.48
641.01	51942.22
641.21	51650.26
641.41	52447.91
641.61	51603.24
641.80	51833.02
642.00	52072.55
642.20	52138.66
642.40	51404.67
642.60	51837.45
642.80	52003.33
642.99	51567.03
643.19	51974.91
643.39	51362.07
643.59	51829.58
643.79	51644.53
643.99	51996.70
644.19	51874.97
644.38	51366.01
644.58	51672.05
644.78	51490.36
644.98	51545.24
645.18	51661.24
645.38	51967.21
645.57	51575.55
645.77	51729.40
645.97	51447.43
646.17	51879.23
646.37	51649.12
646.56	51396.81
646.76	51543.52
646.96	51587.51
647.16	51272.78
647.36	51476.27
647.55	51238.05
647.75	51399.10
647.95	50938.64
648.15	51293.02
648.35	51145.23
648.55	51307.19
648.74	51193.98
648.94	51194.22
649.14	51609.39
649.34	51214.29
649.54	51088.79
649.73	51220.27
649.93	50855.32
650.13	51048.00
650.33	50828.54
650.52	51183.08
650.72	51356.99
650.92	51052.09
651.12	50745.88
651.32	51221.01
651.51	51201.02
651.71	51267.78
651.91	50896.77
652.11	50787.82
652.30	50585.24
652.50	51023.01
652.70	51087.89
652.90	50724.66
653.10	50966.00
653.29	50892.02
653.49	51007.94
653.69	50665.76
653.89	50791.51
654.08	50851.06
654.28	51143.84
654.48	50949.04
654.68	51100.75
654.87	50871.95
655.07	50580.08
655.27	50895.55
655.47	50594.58
655.66	50467.19
655.86	50386.09
656.06	51004.01
656.26	50200.96
656.45	50649.87
656.65	50535.19
656.85	50480.38
657.04	50154.67
657.24	50257.97
657.44	50027.62
657.64	50701.23
657.83	49719.11
658.03	50430.25
658.23	50210.54
658.43	50075.54
658.62	50076.93
658.82	49892.21
659.02	49842.97
659.21	49983.13
659.41	49766.95
659.61	50308.19
659.81	50006.65
660.00	49721.73
660.20	50033.27
660.40	49835.76
660.59	50013.85
660.79	49651.94
660.99	50116.66
661.19	50100.11
661.38	49946.76
661.58	49299.52
661.78	49754.58
661.97	49474.01
662.17	50105.77
662.37	49392.50
662.56	49449.60
662.76	49443.78
662.96	49557.65
663.15	49658.00
663.35	49595.33
663.55	49254.88
663.74	49087.27
663.94	49499.49
664.14	48937.03
664.33	49274.29
664.53	49075.88
664.73	49568.54
664.93	48997.90
665.12	49552.41
665.32	49283.88
665.52	49311.07
665.71	49019.93
665.91	49187.70
666.10	48951.86
666.30	49270.93
666.50	48816.20
666.69	48860.11
666.89	49201.88
667.09	49385.46
667.28	48953.83
667.48	48796.21
667.68	48878.46
667.87	48968.41
668.07	48580.52
668.27	49009.86
668.46	48960.22
668.66	48588.22
668.86	48934.08
669.05	48573.97
669.25	48832.26
669.44	48490.41
669.64	48474.68
669.84	48598.87
670.03	48899.92
670.23	48480.66
670.43	48517.28
670.62	48540.79
670.82	48352.30
671.01	48702.66
671.21	48252.85
671.41	48371.47
671.60	48547.67
671.80	48765.25
672.00	48453.55
672.19	48600.10
672.39	48429.46
672.58	48343.04
672.78	48072.71
672.98	48461.00
673.17	48177.48
673.37	47687.61
673.56	47918.13
673.76	47935.08
673.96	48187.23
674.15	48047.56
674.35	47995.13
674.54	47888.14
674.74	47876.76
674.94	47792.22
675.13	47955.15
675.33	47567.84
675.52	48145.21
675.72	48021.43
675.91	48042.40
676.11	48332.80
676.31	47810.24
676.50	47929.84
676.70	47819.50
676.89	47943.19
677.09	48025.85
677.28	48004.47
677.48	47479.37
677.68	47916.16
677.87	47565.88
678.07	47506.24
678.26	47541.14
678.46	47678.68
678.65	47395.32
678.85	47785.42
679.04	47158.90
679.24	47348.30
679.44	47085.59
679.63	47322.58
679.83	47136.29
680.02	47292.43
680.22	46968.85
680.41	47400.48
680.61	47148.66
680.80	47059.70
681.00	47185.86
681.19	47139.24
681.39	46906.84
681.59	46733.17
681.78	46829.67
681.98	47107.30
682.17	46560.49
682.37	46988.76
682.56	46491.18
682.76	46974.10
682.95	46628.15
683.15	46680.25
683.34	46628.89
683.54	46699.75
683.73	46690.16
683.93	46300.64
684.12	46515.10
684.32	46757.50
684.51	46208.07
684.71	46549.59
684.90	46468.00
685.10	46388.54
685.29	46198.08
685.49	46422.29
685.68	46369.13
685.88	46287.37
686.07	45944.70
686.27	46309.41
686.46	46143.03
686.66	45960.68
686.85	46228.47
687.05	45967.15
687.24	45913.00
687.44	46262.96
687.63	46063.08
687.83	45581.56
688.02	46079.54
688.22	46173.42
688.41	45832.23
688.61	45744.74
688.80	45933.65
689.00	45448.60
689.19	45278.13
689.39	45849.84
689.58	45706.16
689.77	45674.45
689.97	45799.54
690.16	45471.30
690.36	45199.00
690.55	45014.60
690.75	45705.75
690.94	45243.64
691.14	45443.44
691.33	45032.78
691.53	45432.14
691.72	45230.37
691.91	45266.58
692.11	45168.69
692.30	45199.24
692.50	45192.36
692.69	44887.05
692.89	45038.36
693.08	44824.88
693.28	44810.29
693.47	45027.46
693.66	44872.06
693.86	44748.94
694.05	44608.53
694.25	44795.96
694.44	44942.18
694.64	44639.82
694.83	44703.23
695.02	44665.05
695.22	44911.38
695.41	44517.68
695.61	44384.64
695.80	44394.64
695.99	44383.50
696.19	44425.36
696.38	44467.30
696.58	43999.05
696.77	44608.20
696.96	44479.26
697.16	44302.81
697.35	44332.95
697.55	44175.59
697.74	44040.09
697.93	44485.81
698.13	43866.43
698.32	44209.09
698.52	43906.07
698.71	43496.81
698.90	44256.93
699.10	43771.48
699.29	43870.36
699.49	44111.85
699.68	43723.07
699.87	43572.99
700.07	43937.12
700.26	43615.84
700.45	43580.69
700.65	43358.20
700.84	43815.96
701.04	43395.64
701.23	43688.74
701.42	43347.80
701.62	43286.36
701.81	43284.31
702.00	43147.83
702.20	42885.28
702.39	43114.33
702.58	43307.25
702.78	42978.75
702.97	42949.35
703.17	43081.73
703.36	43026.43
703.55	42808.61
703.75	42847.85
703.94	42984.65
704.13	42738.49
704.33	42616.18
704.52	42949.43
704.71	42766.99
704.91	42717.43
705.10	42520.01
705.29	42550.48
705.49	42664.51
705.68	42677.95
705.87	42701.13
706.07	42248.37
706.26	42637.64
706.45	42208.80
706.65	42046.35
706.84	42518.62
707.03	42767.57
707.23	42050.21
707.42	41926.43
707.61	42248.94
707.80	41828.86
708.00	41834.02
708.19	41654.54
708.38	42027.60
708.58	41317.52
708.77	41923.56
708.96	41510.03
709.16	41419.27
709.35	42141.46
709.54	41673.95
709.74	41578.03
709.93	41195.30
710.12	41798.30
710.31	41973.69
710.51	41516.59
710.70	41532.15
710.89	41646.18
711.09	41169.33
711.28	41151.97
711.47	41466.04
711.66	41221.27
711.86	41155.24
712.05	41134.52
712.24	41376.01
712.43	41077.01
712.63	40643.82
712.82	41198.33
713.01	41005.74
713.21	40584.68
713.40	40715.91
713.59	41086.02
713.78	40486.46
713.98	40857.96
714.17	40547.65
714.36	40559.45
714.55	40135.76
714.75	40308.78
714.94	40336.71
715.13	40616.30
715.32	40103.73
715.52	40326.55
715.71	39907.95
715.90	40048.44
716.09	39887.06
716.29	40155.83
716.48	40098.49
716.67	39539.97
716.86	39836.60
717.06	39789.17
717.25	39891.97
717.44	39929.33
717.63	39947.43
717.82	39568.89
718.02	39787.69
718.21	39869.20
718.40	40010.10
718.59	39831.44
718.79	39535.14
718.98	39509.41
719.17	39704.63
719.36	39757.63
719.55	39437.73
719.75	39345.41
719.94	39320.43
720.13	39530.79
720.32	39346.97
720.51	39062.14
720.71	39125.79
720.90	38706.20
721.09	38923.78
721.28	38778.37
721.47	39110.88
721.67	38886.34
721.86	38804.58
722.05	38858.16
722.24	38412.44
722.43	38861.85
722.63	38520.00
722.82	38629.44
723.01	38771.82
723.20	38438.08
723.39	38565.55
723.58	38821.62
723.78	38250.40
723.97	38806.47
724.16	38343.46
724.35	38394.83
724.54	38128.34
724.73	38278.42
724.93	37957.87
725.12	38161.69
725.31	37529.68
725.50	37886.03
725.69	38022.59
725.88	37655.84
726.08	37375.10
726.27	37876.20
726.46	37211.67
726.65	38026.44
726.84	37566.30
727.03	37587.19
727.23	37932.07
727.42	37467.83
727.61	37534.68
727.80	37328.41
727.99	37409.59
728.18	37422.70
728.37	37301.78
728.56	37114.52
728.76	37001.39
728.95	37340.20
729.14	37190.95
729.33	37032.76
729.52	37090.35
729.71	36974.93
729.90	36945.68
730.09	36556.73
730.29	36756.70
730.48	36313.84
730.67	36682.56
730.86	36383.97
731.05	36614.81
731.24	36365.70
731.43	36454.17
731.62	36241.18
731.81	36272.56
732.01	36676.25
732.20	36308.44
732.39	36628.58
732.58	36558.78
732.77	36025.74
732.96	36435.08
733.15	36463.10
733.34	36095.61
733.53	36210.30
733.72	36186.13
733.92	36072.51
734.11	35833.80
734.30	35882.87
734.49	35990.18
734.68	35758.44
734.87	35664.47
735.06	35708.71
735.25	35739.84
735.44	35535.04
735.63	35586.41
735.82	35692.25
736.01	35459.10
736.20	35516.78
736.40	35702.89
736.59	35549.13
736.78	35752.29
736.97	35294.28
737.16	35397.91
737.35	35493.76
737.54	35575.10
737.73	35305.51
737.92	35443.54
738.11	35556.01
738.30	35245.87
738.49	35207.53
738.68	35135.69
738.87	35251.77
739.06	35002.08
739.25	35131.18
739.44	34986.11
739.63	34875.76
739.82	34565.21
740.01	34878.14
740.20	34601.09
740.39	34627.38
740.59	34735.68
740.78	34662.69
740.97	34379.09
741.16	34241.71
741.35	34420.95
741.54	34390.47
741.73	34351.32
741.92	34181.58
742.11	34165.44
742.30	34343.37
742.49	33992.02
742.68	34220.98
742.87	34110.39
743.06	33761.34
743.25	34034.13
743.44	33831.71
743.63	34143.16
743.82	33775.43
744.01	33796.48
744.20	33553.26
744.39	33795.01
744.58	33721.61
744.77	33475.85
744.96	33246.56
745.15	33569.24
745.34	33375.34
745.53	33551.38
745.72	33314.14
745.91	33381.24
746.10	33160.71
746.29	33477.00
746.48	33420.31
746.67	33349.94
746.86	33303.58
747.04	33260.49
747.23	33037.50
747.42	33308.90
747.61	32960.99
747.80	33449.47
747.99	32793.88
748.18	33126.80
748.37	32982.05
748.56	32623.57
748.75	32770.45
748.94	32691.73
749.13	32733.01
749.32	32518.30
749.51	32645.36
749.70	32647.49
749.89	32391.17
750.08	32614.80
750.27	32127.14
750.46	32343.82
750.65	32615.87
750.84	32199.31
751.02	32315.72
751.21	32224.46
751.40	32352.99
751.59	32376.17
751.78	32276.15
751.97	32376.50
752.16	32097.81
752.35	32358.40
752.54	31996.64
752.73	32226.26
752.92	31892.94
753.11	31972.23
753.30	32051.69
753.49	32128.86
753.67	31963.39
753.86	31811.34
754.05	32031.05
754.24	31692.15
754.43	31719.43
754.62	31760.88
754.81	31427.56
755.00	31575.83
755.19	31473.59
755.38	31094.88
755.56	31400.93
755.75	31637.68
755.94	31248.48
756.13	31340.72
756.32	31440.74
756.51	31218.42
756.70	31336.46
756.89	31272.81
757.08	31148.13
757.26	31150.10
757.45	31069.90
757.64	30794.90
757.83	31079.15
758.02	30806.37
758.21	30794.40
758.40	30813.98
758.59	30891.23
758.77	30660.88
758.96	30734.28
759.15	30851.34
759.34	30536.44
759.53	30677.51
759.72	30578.39
759.91	30373.92
760.09	30533.99
760.28	30661.12
760.47	30267.18
760.66	30649.49
760.85	30289.62
761.04	30613.20
761.23	30444.61
761.41	30413.07
761.60	30559.05
761.79	30338.12
761.98	30014.05
762.17	30423.39
762.36	29956.21
762.54	30252.35
762.73	30022.57
762.92	29860.04
763.11	30243.01
763.30	30238.75
763.49	30197.30
763.67	30050.66
763.86	30144.95
764.05	30168.55
764.24	30013.39
764.43	30275.53
764.61	29775.75
764.80	29795.98
764.99	30098.83
765.18	29709.47
765.37	29857.99
765.55	29806.71
765.74	29712.83
765.93	29580.21
766.12	29782.79
766.31	29631.16
766.49	29578.57
766.68	29651.88
766.87	29515.74
767.06	29381.96
767.25	29490.91
767.43	29512.13
767.62	29435.78
767.81	29510.74
768.00	29311.59
768.19	29180.20
768.37	29305.70
768.56	29291.52
768.75	29355.99
768.94	29373.44
769.12	29016.03
769.31	29014.72
769.50	28942.14
769.69	29140.47
769.88	28814.84
770.06	29297.67
770.25	28921.09
770.44	28959.67
770.63	29128.67
770.81	28973.35
771.00	28907.41
771.19	28933.37
771.38	28933.46
771.56	29129.82
771.75	28588.09
771.94	28928.13
772.13	28903.56
772.31	28671.40
772.50	29008.82
772.69	28718.50
772.88	28973.19
773.06	28560.56
773.25	28695.24
773.44	28665.99
773.62	28558.27
773.81	28606.76
774.00	28476.76
774.19	28559.17
774.37	28374.20
774.56	28692.86
774.75	28189.31
774.94	28494.78
775.12	28272.29
775.31	28390.91
775.50	28392.63
775.68	28266.64
775.87	28196.84
776.06	28032.02
776.25	28225.11
776.43	27961.74
776.62	28279.58
776.81	27824.93
776.99	28072.74
777.18	28075.52
777.37	27808.47
777.55	27992.29
777.74	28056.35
777.93	27966.41
778.12	27905.13
778.30	27741.05
778.49	27779.06
778.68	27904.15
778.86	27897.35
779.05	28013.59
779.24	27994.59
779.42	27733.35
779.61	27639.14
779.80	27685.83
779.98	27775.62
780.17	27931.34
780.36	27592.61
780.54	27913.65
780.73	27333.34
780.92	27776.60
781.10	27659.95
781.29	27583.76
781.48	27415.50
781.66	27448.68
781.85	27562.22
782.04	27333.99
782.22	27432.30
782.41	27198.91
782.60	27347.67
782.78	27396.25
782.97	27432.46
783.16	26981.33
783.34	27023.03
783.53	27161.96
783.71	27073.41
783.90	27091.92
784.09	27074.64
784.27	27078.65
784.46	27040.23
784.65	27080.13
784.83	26946.19
785.02	26887.54
785.20	27121.09
785.39	26600.25
785.58	27112.81
785.76	26945.45
785.95	26926.45
786.14	27074.23
786.32	27092.50
786.51	26955.61
786.69	27108.80
786.88	26932.59
787.07	26846.82
787.25	26938.00
787.44	26902.94
787.62	26788.58
787.81	26993.21
788.00	26909.57
788.18	26788.74
788.37	26813.81
788.55	27137.63
788.74	26823.72
788.93	26876.97
789.11	27056.29
789.30	26854.60
789.48	26715.75
789.67	26950.61
789.86	26827.90
790.04	26862.63
790.23	26777.85
790.41	26730.66
790.60	26839.53
790.78	26835.11
790.97	26534.14
791.16	26749.42
791.34	27118.79
791.53	26711.41
791.71	27078.32
791.90	26879.51
792.08	26932.51
792.27	27024.18
792.46	26852.64
792.64	26996.98
792.83	26939.39
793.01	27023.44
793.20	26984.28
793.38	26975.11
793.57	26908.51
793.75	26884.42
793.94	26989.12
794.12	27169.42
794.31	26955.45
794.50	27117.32
794.68	27231.92
794.87	27119.78
795.05	27356.68
795.24	27122.64
795.42	27062.60
795.61	27378.07
795.79	27420.09
795.98	27024.91
796.16	27223.32
796.35	27342.76
796.53	27099.87
796.72	27293.28
796.90	27302.95
797.09	27265.92
797.27	27165.32
797.46	27077.26
797.64	27214.31
797.83	27201.37
798.01	27207.43
798.20	27407.47
798.38	27233.81
798.57	27504.79
798.75	27438.11
798.94	27082.83
799.12	27756.04
799.31	27515.69
799.49	27444.09
799.68	27417.63
799.86	27339.65
800.05	27335.14
800.23	27317.04
800.42	27226.68
800.60	27492.34
800.79	27168.19
800.97	27192.27
801.16	27430.41
801.34	27067.76
801.53	27014.43
801.71	27156.88
801.90	26914.90
802.08	27197.93
802.27	27046.13
802.45	26948.65
802.64	27046.46
802.82	27197.52
803.00	26885.00
803.19	27047.52
803.37	27244.13
803.56	26951.60
803.74	27001.32
803.93	27005.42
804.11	26890.65
804.30	26768.43
804.48	26969.05
804.67	27013.77
804.85	26881.39
805.03	27151.48
805.22	26780.71
805.40	26737.95
805.59	26907.44
805.77	26932.02
805.96	26783.99
806.14	26750.24
806.32	26848.87
806.51	27130.51
806.69	26895.65
806.88	26844.94
807.06	26834.37
807.25	26816.84
807.43	26870.25
807.61	26895.81
807.80	26733.20
807.98	26967.00
808.17	26826.26
808.35	26694.78
808.53	27007.30
808.72	26752.45
808.90	26741.31
809.09	26716.90
809.27	26752.78
809.45	26432.80
809.64	26635.14
809.82	26493.75
810.01	26555.11
810.19	26552.73
810.37	26464.75
810.56	26420.11
810.74	26567.15
810.93	26237.92
811.11	26289.61
811.29	26139.45
811.48	26235.54
811.66	26244.64
811.84	26172.63
812.03	26107.26
812.21	26125.94
812.40	26253.08
812.58	26408.31
812.76	26151.99
812.95	26314.92
813.13	25945.39
813.31	26170.42
813.50	26201.71
813.68	26090.14
813.86	26256.93
814.05	26318.61
814.23	25868.47
814.42	26044.26
814.60	25900.58
814.78	25970.05
814.97	25960.13
815.15	25876.58
815.33	25969.64
815.52	25842.33
815.70	25894.27
815.88	25928.84
816.07	25692.34
816.25	25803.01
816.43	25810.47
816.62	25558.40
816.80	25716.92
816.98	25509.91
817.17	25529.57
817.35	25480.25
817.53	25451.99
817.72	25693.24
817.90	25272.92
818.08	25380.97
818.26	25548.66
818.45	25313.22
818.63	25495.00
818.81	25486.23
819.00	25203.70
819.18	25521.70
819.36	25461.74
819.55	25462.97
819.73	25228.19
819.91	25370.56
820.09	25282.67
820.28	25369.91
820.46	25196.49
820.64	25473.21
820.83	25167.16
821.01	25185.84
821.19	25121.37
821.38	25149.79
821.56	25003.98
821.74	25174.29
821.92	24900.60
822.11	25184.53
822.29	24865.37
822.47	24878.56
822.65	25039.12
822.84	25090.24
823.02	24806.06
823.20	25160.20
823.39	24795.58
823.57	24861.44
823.75	24902.24
823.93	24709.40
824.12	24805.24
824.30	24597.91
824.48	24546.22
824.66	24721.44
824.85	24227.72
825.03	24609.05
825.21	24614.37
825.39	24555.15
825.58	24606.43
825.76	24534.01
825.94	24574.31
826.12	24410.80
826.31	24333.06
826.49	24379.92
826.67	24458.24
826.85	24313.08
827.03	24274.90
827.22	24367.72
827.40	24172.67
827.58	24112.29
827.76	24146.62
827.95	23989.58
828.13	24132.44
828.31	24073.38
828.49	24086.90
828.67	24006.54
828.86	23851.05
829.04	24020.30
829.22	23918.06
829.40	23863.83
829.58	23778.39
829.77	23832.70
829.95	23885.21
830.13	23784.62
830.31	23777.65
830.49	23807.80
830.68	23782.73
830.86	23648.47
831.04	23650.11
831.22	23684.10
831.40	23602.10
831.59	23762.09
831.77	23492.41
831.95	23768.64
832.13	23456.94
832.31	23608.98
832.50	23563.44
832.68	23430.32
832.86	23521.33
833.04	23637.41
833.22	23299.82
833.40	23672.72
833.59	23341.85
833.77	23630.61
833.95	23097.07
834.13	23719.25
834.31	23418.44
834.49	23402.30
834.67	23386.74
834.86	23451.95
835.04	23285.00
835.22	23377.65
835.40	23254.11
835.58	23162.28
835.76	23181.70
835.95	23190.30
836.13	23095.60
836.31	22964.37
836.49	23163.26
836.67	23169.49
836.85	23099.45
837.03	23046.28
837.21	23094.62
837.40	22934.96
837.58	22708.21
837.76	22912.18
837.94	22849.84
838.12	23007.13
838.30	22777.02
838.48	22845.01
838.66	22761.53
838.85	22724.34
839.03	22731.96
839.21	22631.77
839.39	22640.46
839.57	22693.95
839.75	22483.42
839.93	22564.27
840.11	22555.34
840.29	22486.29
840.47	22498.33
840.66	22500.95
840.84	22513.81
841.02	22349.24
841.20	22468.84
841.38	22385.61
841.56	22356.69
841.74	22601.96
841.92	22324.42
842.10	22279.20
842.28	22410.51
842.46	22185.48
842.65	22213.42
842.83	22313.27
843.01	22434.43
843.19	22172.46
843.37	22327.77
843.55	22089.72
843.73	22224.80
843.91	22271.91
844.09	22089.06
844.27	22251.51
844.45	21983.80
844.63	21971.26
844.81	21994.86
844.99	22039.75
845.17	21901.47
845.35	22044.58
845.54	21902.37
845.72	21883.53
845.90	21870.42
846.08	21854.94
846.26	21648.42
846.44	21905.73
846.62	21566.01
846.80	21633.02
846.98	21672.18
847.16	21625.57
847.34	21727.06
847.52	21617.54
847.70	21593.05
847.88	21660.63
848.06	21542.50
848.24	21616.56
848.42	21588.95
848.60	21351.79
848.78	21506.21
848.96	21355.97
849.14	21336.56
849.32	21448.05
849.50	21255.21
849.68	21399.88
849.86	21327.22
850.04	21214.09
850.22	21178.62
850.40	21099.40
850.58	21218.68
850.76	21523.00
850.94	20916.23
851.12	21196.23
851.30	21051.32
851.48	21215.40
851.66	20897.72
851.84	20853.32
852.02	20864.21
852.20	21015.35
852.38	20786.64
852.56	20912.55
852.74	20905.75
852.92	20781.97
853.10	20717.91
853.28	20845.54
853.46	20466.58
853.64	20771.73
853.82	20585.77
854.00	20623.54
854.18	20459.13
854.36	20466.01
854.54	20525.56
854.72	20336.99
854.90	20292.59
855.07	20389.41
855.25	20345.67
855.43	20380.07
855.61	20330.92
855.79	20252.04
855.97	20355.91
856.15	20375.00
856.33	20276.20
856.51	20413.82
856.69	20151.03
856.87	20417.51
857.05	20243.27
857.23	20344.11
857.41	20085.33
857.59	20172.08
857.77	20126.86
857.94	20120.88
858.12	20239.83
858.30	20086.97
858.48	20086.48
858.66	20042.49
858.84	20201.74
859.02	19974.90
859.20	19886.10
859.38	20078.12
859.56	19999.32
859.74	19854.57
859.92	19902.41
860.09	19793.54
860.27	19885.86
860.45	19652.88
860.63	19670.82
860.81	19767.40
860.99	19605.61
861.17	19429.57
861.35	19139.09
861.53	19006.87
861.70	18933.39
861.88	19402.78
862.06	19338.31
862.24	19094.36
862.42	19033.49
862.60	19406.63
862.78	19406.63
862.96	19438.17
863.14	19261.47
863.31	19367.48
863.49	19299.40
863.67	19265.90
863.85	19272.45
864.03	19353.47
864.21	19284.00
864.39	19255.99
864.56	19054.14
864.74	19155.72
864.92	19033.41
865.10	18991.14
865.28	19058.89
865.46	19250.01
865.64	18833.37
865.81	19038.33
865.99	18812.80
866.17	18951.17
866.35	18799.04
866.53	18805.60
866.71	18787.25
866.88	18821.00
867.06	18676.33
867.24	18678.29
867.42	18564.10
867.60	18601.29
867.78	18545.91
867.95	18643.56
868.13	18431.47
868.31	18549.93
868.49	18481.85
868.67	18399.12
868.84	18355.45
869.02	18431.15
869.20	18082.58
869.38	18340.30
869.56	18234.29
869.73	18142.96
869.91	18233.56
870.09	18227.58
870.27	18085.61
870.45	18174.17
870.62	18020.08
870.80	18213.00
870.98	18074.23
871.16	18150.90
871.34	18101.26
871.51	18170.40
871.69	18007.71
871.87	18103.55
872.05	18013.20
872.23	18039.41
872.40	17870.90
872.58	17926.69
872.76	17863.20
872.94	17765.64
873.11	17883.68
873.29	17731.07
873.47	17842.97
873.65	17702.89
873.83	17697.32
874.00	17625.64
874.18	17682.16
874.36	17513.98
874.54	17600.16
874.71	17453.69
874.89	17331.88
875.07	17421.25
875.25	17341.71
875.42	17399.05
875.60	17381.19
875.78	17533.56
875.96	17316.89
876.13	17442.71
876.31	17183.93
876.49	17274.37
876.66	17101.93
876.84	17425.02
877.02	17203.67
877.20	17215.31
877.37	17223.42
877.55	17186.31
877.73	17169.51
877.91	17116.68
878.08	17239.06
878.26	17154.44
878.44	17173.04
878.61	17150.59
878.79	17006.25
878.97	16987.98
879.15	17065.23
879.32	17100.70
879.50	17046.23
879.68	17163.45
879.85	17000.52
880.03	17147.48
880.21	16986.34
880.38	17112.42
880.56	16950.30
880.74	17225.63
880.92	16905.33
881.09	17046.47
881.27	16995.11
881.45	17049.42
881.62	16963.82
881.80	16885.01
881.98	16864.29
882.15	16982.41
882.33	16899.84
882.51	16891.81
882.68	16735.43
882.86	16918.93
883.04	16687.50
883.21	16721.66
883.39	16818.82
883.57	16691.68
883.74	16771.80
883.92	16792.52
884.10	16726.50
884.27	16745.99
884.45	16706.76
884.63	16854.54
884.80	16752.88
884.98	16812.68
885.16	16758.61
885.33	16788.35
885.51	16746.24
885.69	16819.39
885.86	16746.65
886.04	16849.79
886.21	16686.60
886.39	16857.08
886.57	16582.08
886.74	16878.46
886.92	16804.32
887.10	16848.39
887.27	16827.75
887.45	16779.17
887.62	16771.06
887.80	16791.62
887.98	16928.76
888.15	16864.37
888.33	16745.09
888.51	16948.25
888.68	16794.49
888.86	16812.43
889.03	16790.48
889.21	16833.89
889.39	16869.28
889.56	16847.57
889.74	16879.60
889.91	16858.06
890.09	16804.57
890.27	16783.84
890.44	16786.13
890.62	16817.10
890.79	16815.63
890.97	16854.21
891.14	16778.84
891.32	16844.54
891.50	16769.91
891.67	16817.67
891.85	16730.27
892.02	16711.18
892.20	16834.14
892.38	16762.87
892.55	16618.45
892.73	16760.90
892.90	16657.19
893.08	16694.96
893.25	16684.39
893.43	16845.36
893.60	16650.97
893.78	16755.42
893.96	16767.05
894.13	16809.32
894.31	16939.00
894.48	16800.63
894.66	16809.89
894.83	16795.39
895.01	16767.70
895.18	16767.87
895.36	16633.68
895.53	16799.41
895.71	16670.71
895.89	16741.33
896.06	16599.77
896.24	16752.71
896.41	16668.99
896.59	16711.42
896.76	16537.43
896.94	16683.57
897.11	16734.53
897.29	16792.44
897.46	16618.94
897.64	16744.77
897.81	16620.66
897.99	16512.12
898.16	16756.40
898.34	16637.86
898.51	16633.36
898.69	16536.04
898.86	16571.34
899.04	16562.25
899.21	16500.57
899.39	16513.26
899.56	16450.27
899.74	16599.20
899.91	16418.40
900.09	16336.97
900.26	16404.48
900.44	16302.57
900.61	16289.05
900.79	16472.71
900.96	16342.95
901.14	16345.99
901.31	16262.26
901.49	16302.08
901.66	16349.75
901.84	16354.91
902.01	16249.40
902.19	16285.45
902.36	16080.81
902.54	16151.92
902.71	16087.20
902.88	16177.15
903.06	15904.77
903.23	16221.47
903.41	15969.00
903.58	15976.29
903.76	15897.32
903.93	15982.92
904.11	16035.84
904.28	15953.51
904.45	15919.35
904.63	15847.92
904.80	15731.10
904.98	15822.03
905.15	15690.96
905.33	15789.10
905.50	15712.18
905.68	15708.33
905.85	15612.81
906.02	15597.74
906.20	15734.13
906.37	15516.56
906.55	15462.33
906.72	15617.15
906.90	15405.23
907.07	15323.31
907.24	15366.40
907.42	15293.82
907.59	15307.58
907.77	15240.98
907.94	15193.55
908.11	15235.90
908.29	15146.78
908.46	15140.71
908.64	15077.39
908.81	15115.65
908.98	14981.46
909.16	15060.76
909.33	14936.82
909.51	14884.47
909.68	14879.07
909.85	14817.05
910.03	14850.15
910.20	14655.18
910.37	14708.27
910.55	14686.07
910.72	14654.20
910.90	14522.97
911.07	14537.22
911.24	14460.13
911.42	14591.53
911.59	14402.05
911.76	14540.74
911.94	14390.75
912.11	14348.23
912.29	14382.88
912.46	14309.98
912.63	14322.02
912.81	14166.86
912.98	14363.39
913.15	14166.62
913.33	14229.45
913.50	14185.71
913.67	14116.73
913.85	14029.32
914.02	14073.72
914.19	13976.49
914.37	13881.87
914.54	13918.98
914.71	13858.19
914.89	13815.19
915.06	13850.41
915.23	13812.24
915.41	13683.54
915.58	13677.97
915.75	13635.46
915.93	13662.49
916.10	13565.01
916.27	13478.58
916.45	13505.94
916.62	13372.66
916.79	13439.59
916.97	13369.22
917.14	13325.89
917.31	13251.42
917.49	13333.01
917.66	13272.56
917.83	13251.42
918.00	13176.96
918.18	13136.33
918.35	13080.54
918.52	13166.47
918.70	12974.95
918.87	13026.97
919.04	13041.38
919.21	12937.51
919.39	12858.70
919.56	12928.58
919.73	12785.96
919.91	12831.51
920.08	12779.57
920.25	12659.15
920.42	12823.72
920.60	12659.72
920.77	12639.65
920.94	12617.86
921.11	12512.02
921.29	12601.89
921.46	12402.91
921.63	12583.21
921.81	12416.67
921.98	12409.46
922.15	12338.27
922.32	12390.87
922.50	12313.21
922.67	12283.06
922.84	12216.13
923.01	12170.75
923.19	12107.10
923.36	12114.88
923.53	11962.43
923.70	12019.28
923.87	11970.71
924.05	11985.70
924.22	11861.26
924.39	11907.14
924.56	11800.40
924.74	11812.60
924.91	11779.83
925.08	11735.43
925.25	11735.52
925.43	11682.35
925.60	11629.10
925.77	11713.23
925.94	11597.24
926.11	11652.70
926.29	11535.22
926.46	11570.20
926.63	11545.38
926.80	11511.63
926.97	11416.69
927.15	11459.78
927.32	11341.41
927.49	11304.62
927.66	11308.06
927.83	11335.75
928.01	11222.95
928.18	11178.63
928.35	11086.23
928.52	11174.86
928.69	11027.90
928.87	11004.23
929.04	10985.55
929.21	10994.15
929.38	10932.06
929.55	10911.58
929.72	10839.41
929.90	10870.95
930.07	10801.89
930.24	10732.83
930.41	10724.31
930.58	10694.49
930.75	10706.29
930.93	10659.51
931.10	10641.57
931.27	10558.02
931.44	10573.91
931.61	10538.27
931.78	10571.21
931.95	10547.53
932.13	10451.85
932.30	10508.29
932.47	10387.13
932.64	10464.71
932.81	10401.14
932.98	10360.10
933.15	10355.27
933.33	10285.47
933.50	10387.54
933.67	10311.77
933.84	10324.63
934.01	10303.00
934.18	10285.06
934.35	10258.93
934.52	10230.34
934.70	10243.04
934.87	10243.28
935.04	10127.94
935.21	10143.75
935.38	10111.15
935.55	10085.59
935.72	10125.16
935.89	9965.83
936.06	10034.39
936.24	9928.39
936.41	10012.68
936.58	9901.52
936.75	9864.82
936.92	9906.60
937.09	9888.90
937.26	9813.13
937.43	9824.11
937.60	9825.33
937.77	9801.41
937.94	9767.34
938.12	9805.18
938.29	9682.22
938.46	9707.62
938.63	9588.51
938.80	9686.24
938.97	9586.13
939.14	9576.88
939.31	9532.97
939.48	9516.09
939.65	9460.14
939.82	9426.47
939.99	9415.74
940.16	9438.19
940.33	9360.04
940.50	9376.58
940.67	9325.38
940.85	9328.91
941.02	9291.63
941.19	9304.74
941.36	9282.87
941.53	9237.24
941.70	9241.99
941.87	9128.04
942.04	9138.45
942.21	9117.47
942.38	9123.70
942.55	9054.07
942.72	9057.02
942.89	9026.30
943.06	8978.38
943.23	8978.38
943.40	8934.14
943.57	8976.33
943.74	8937.75
943.91	8922.59
944.08	8899.08
944.25	8941.92
944.42	8842.23
944.59	8827.73
944.76	8858.12
944.93	8822.16
945.10	8776.94
945.27	8790.86
945.44	8682.40
945.61	8721.56
945.78	8680.60
945.95	8666.84
946.12	8571.40
946.29	8638.66
946.46	8610.48
946.63	8553.38
946.80	8552.15
946.97	8524.30
947.14	8498.99
947.31	8526.35
947.48	8434.03
947.65	8410.52
947.82	8469.50
947.99	8456.23
948.16	8377.91
948.33	8455.90
948.50	8365.62
948.67	8372.67
948.84	8302.30
949.01	8265.19
949.18	8294.60
949.35	8322.13
949.52	8197.45
949.68	8239.55
949.85	8231.28
950.02	8155.67
950.19	8144.85
950.36	8106.52
950.53	8094.56
950.70	8087.84
950.87	8010.51
951.04	8102.99
951.21	7987.24
951.38	7993.30
951.55	8006.08
951.72	7971.60
951.89	7947.59
952.06	8004.61
952.23	7962.83
952.39	7944.48
952.56	7850.03
952.73	7907.29
952.90	7818.57
953.07	7865.51
953.24	7740.91
953.41	7819.14
953.58	7741.57
953.75	7800.96
953.92	7715.60
954.09	7710.60
954.25	7652.36
954.42	7663.01
954.59	7619.43
954.76	7579.70
954.93	7573.22
955.10	7615.82
955.27	7552.66
955.44	7531.86
955.61	7515.72
955.77	7533.58
955.94	7505.64
956.11	7497.86
956.28	7501.87
956.45	7468.86
956.62	7500.56
956.79	7469.11
956.96	7460.91
957.12	7513.83
957.29	7470.09
957.46	7462.88
957.63	7418.56
957.80	7376.13
957.97	7367.77
958.14	7395.13
958.30	7294.62
958.47	7304.29
958.64	7281.59
958.81	7309.28
958.98	7249.97
959.15	7260.70
959.32	7268.98
959.48	7219.75
959.65	7184.77
959.82	7171.17
959.99	7100.64
960.16	7166.66
960.33	7124.56
960.49	7122.18
960.66	7042.47
960.83	7074.67
961.00	7036.82
961.17	7032.72
961.33	7013.15
961.50	7016.42
961.67	6982.18
961.84	7011.43
962.01	6989.72
962.18	6984.15
962.34	6966.53
962.51	6971.70
962.68	6921.72
962.85	6976.28
963.02	6865.45
963.18	6912.39
963.35	6849.64
963.52	6864.79
963.69	6863.81
963.86	6875.36
964.02	6773.12
964.19	6790.98
964.36	6760.26
964.53	6766.24
964.69	6700.95
964.86	6750.84
965.03	6662.04
965.20	6719.55
965.37	6634.52
965.53	6657.95
965.70	6640.99
965.87	6647.71
966.04	6603.63
966.20	6590.53
966.37	6557.10
966.54	6500.01
966.71	6590.12
966.87	6508.94
967.04	6543.18
967.21	6510.57
967.38	6474.12
967.54	6513.20
967.71	6480.67
967.88	6489.36
968.05	6460.69
968.21	6420.46
968.38	6402.85
968.55	6404.33
968.72	6349.19
968.88	6349.44
969.05	6379.83
969.22	6325.77
969.39	6305.86
969.55	6306.19
969.72	6275.71
969.89	6273.67
970.05	6287.26
970.22	6273.58
970.39	6260.64
970.56	6281.69
970.72	6272.44
970.89	6231.64
971.06	6205.92
971.22	6244.34
971.39	6224.76
971.56	6234.34
971.73	6166.93
971.89	6198.38
972.06	6145.05
972.23	6167.99
972.39	6128.34
972.56	6132.27
972.73	6061.25
972.89	6076.57
973.06	6116.38
973.23	6071.57
973.39	6060.27
973.56	6052.89
973.73	6004.73
973.89	6054.78
974.06	5989.00
974.23	5994.32
974.39	5975.65
974.56	6000.06
974.73	5952.46
974.89	5916.75
975.06	5903.88
975.23	5943.78
975.39	5879.06
975.56	5900.12
975.73	5883.57
975.89	5844.98
976.06	5853.83
976.23	5829.99
976.39	5823.52
976.56	5830.32
976.73	5796.90
976.89	5795.92
977.06	5783.87
977.23	5729.64
977.39	5751.35
977.56	5751.93
977.72	5708.43
977.89	5727.68
978.06	5706.95
978.22	5701.30
978.39	5659.03
978.56	5660.18
978.72	5658.46
978.89	5662.39
979.05	5648.79
979.22	5627.98
979.39	5609.88
979.55	5588.66
979.72	5555.81
979.88	5607.17
980.05	5539.67
980.22	5609.71
980.38	5542.29
980.55	5538.44
980.71	5510.76
980.88	5545.00
981.05	5501.83
981.21	5524.76
981.38	5492.08
981.54	5519.93
981.71	5456.69
981.88	5469.14
982.04	5465.78
982.21	5429.49
982.37	5440.31
982.54	5439.49
982.70	5407.54
982.87	5411.39
983.04	5352.00
983.20	5420.56
983.37	5371.66
983.53	5387.71
983.70	5370.92
983.86	5340.77
984.03	5336.84
984.20	5350.20
984.36	5329.80
984.53	5355.11
984.69	5315.95
984.86	5303.50
985.02	5325.21
985.19	5291.54
985.35	5282.53
985.52	5272.62
985.68	5258.28
985.85	5263.61
986.02	5243.95
986.18	5225.52
986.35	5224.29
986.51	5235.02
986.68	5219.37
986.84	5198.15
987.01	5170.14
987.17	5192.99
987.34	5165.63
987.50	5141.79
987.67	5139.66
987.83	5135.73
988.00	5125.16
988.16	5096.41
988.33	5097.97
988.49	5110.99
988.66	5059.22
988.82	5076.18
988.99	5044.23
989.15	5069.62
989.32	5003.43
989.48	5035.30
989.65	4985.25
989.81	4988.85
989.98	4957.89
990.14	4971.24
990.31	4944.53
990.47	4955.35
990.64	4957.72
990.80	4962.15
990.97	4925.20
991.13	4952.64
991.30	4925.53
991.46	4923.73
991.63	4928.31
991.79	4912.18
991.95	4881.13
992.12	4909.80
992.28	4874.33
992.45	4874.66
992.61	4839.35
992.78	4859.99
992.94	4821.25
993.11	4860.65
993.27	4842.87
993.44	4832.71
993.60	4809.53
993.76	4827.23
993.93	4802.81
994.09	4820.35
994.26	4787.25
994.42	4770.05
994.59	4743.75
994.75	4780.29
994.91	4765.30
995.08	4721.80
995.24	4718.44
995.41	4740.23
995.57	4710.49
995.74	4716.72
995.90	4677.23
996.06	4702.55
996.23	4711.80
996.39	4670.76
996.56	4641.35
996.72	4671.66
996.88	4653.39
997.05	4658.56
997.21	4633.98
997.38	4622.59
997.54	4606.37
997.70	4631.36
997.87	4607.27
998.03	4605.47
998.20	4574.59
998.36	4588.19
998.52	4540.10
998.69	4613.01
998.85	4551.98
999.02	4556.98
999.18	4548.95
999.34	4542.80
999.51	4565.91
999.67	4536.25
999.83	4529.78
1000.00	4514.46
1000.16	4520.52
1000.33	4507.01
1000.49	4510.45
1000.65	4491.28
1000.82	4508.97
1000.98	4476.53
1001.14	4487.26
1001.31	4482.27
1001.47	4457.77
1001.63	4475.30
1001.80	4429.43
1001.96	4417.14
1002.12	4422.47
1002.29	4440.90
1002.45	4390.52
1002.61	4403.95
1002.78	4389.53
1002.94	4422.14
1003.10	4368.65
1003.27	4370.77
1003.43	4348.82
1003.59	4390.19
1003.76	4361.52
1003.92	4375.77
1004.08	4349.97
1004.25	4362.26
1004.41	4316.30
1004.57	4343.50
1004.74	4307.53
1004.90	4340.71
1005.06	4291.15
1005.23	4311.38
1005.39	4295.90
1005.55	4336.45
1005.71	4293.94
1005.88	4285.83
1006.04	4305.08
1006.20	4288.28
1006.37	4263.95
1006.53	4264.85
1006.69	4249.04
1006.85	4269.85
1007.02	4230.04
1007.18	4240.03
1007.34	4227.91
1007.51	4238.23
1007.67	4206.94
1007.83	4209.23
1007.99	4191.45
1008.16	4181.87
1008.32	4186.87
1008.48	4205.05
1008.64	4166.80
1008.81	4214.31
1008.97	4159.75
1009.13	4169.42
1009.29	4157.79
1009.46	4157.79
1009.62	4160.41
1009.78	4136.65
1009.95	4150.90
1010.11	4123.38
1010.27	4109.78
1010.43	4116.91
1010.59	4145.50
1010.76	4087.58
1010.92	4075.62
1011.08	4085.62
1011.24	4073.98
1011.41	4124.61
1011.57	4061.45
1011.73	4068.41
1011.89	4045.07
1012.06	4102.98
1012.22	4041.54
1012.38	4049.82
1012.54	4034.58
1012.70	4042.03
1012.87	4014.67
1013.03	4013.53
1013.19	4014.35
1013.35	4024.50
1013.51	3985.51
1013.68	4009.60
1013.84	3974.04
1014.00	4007.87
1014.16	3991.90
1014.32	3968.72
1014.49	3974.21
1014.65	3996.08
1014.81	3954.38
1014.97	3957.33
1015.13	3945.78
1015.30	3947.99
1015.46	3950.04
1015.62	3953.81
1015.78	3944.22
1015.94	3941.77
1016.10	3922.02
1016.27	3948.81
1016.43	3918.91
1016.59	3920.88
1016.75	3906.38
1016.91	3906.87
1017.07	3907.85
1017.24	3904.58
1017.40	3886.39
1017.56	3890.89
1017.72	3860.34
1017.88	3881.06
1018.04	3866.97
1018.21	3876.97
1018.37	3863.21
1018.53	3857.23
1018.69	3838.88
1018.85	3861.32
1019.01	3823.23
1019.17	3839.53
1019.34	3843.30
1019.50	3854.20
1019.66	3796.61
1019.82	3818.72
1019.98	3813.56
1020.14	3837.07
1020.30	3823.31
1020.46	3814.71
1020.63	3791.28
1020.79	3796.61
1020.95	3785.63
1021.11	3803.08
1021.27	3786.45
1021.43	3789.97
1021.59	3794.80
1021.75	3768.84
1021.91	3748.27
1022.07	3762.77
1022.24	3760.48
1022.40	3755.73
1022.56	3745.41
1022.72	3754.01
1022.88	3725.66
1023.04	3731.24
1023.20	3732.22
1023.36	3728.12
1023.52	3729.92
1023.68	3731.56
1023.84	3704.69
1024.01	3722.55
1024.17	3700.68
1024.33	3686.84
1024.49	3698.71
1024.65	3708.79
1024.81	3706.00
1024.97	3701.17
1025.13	3690.36
1025.29	3708.38
1025.45	3667.75
1025.61	3708.05
1025.77	3657.34
1025.93	3684.30
1026.09	3666.68
1026.25	3676.76
1026.41	3670.53
1026.57	3668.57
1026.73	3676.84
1026.90	3672.75
1027.06	3677.99
1027.22	3674.38
1027.38	3648.17
1027.54	3663.41
1027.70	3657.26
1027.86	3663.73
1028.02	3648.09
1028.18	3642.52
1028.34	3645.06
1028.50	3638.34
1028.66	3618.60
1028.82	3625.15
1028.98	3601.31
1029.14	3608.36
1029.30	3621.55
1029.46	3616.55
1029.62	3604.18
1029.78	3587.96
1029.94	3605.08
1030.10	3604.18
1030.26	3576.98
1030.42	3584.85
1030.58	3593.53
1030.74	3592.96
1030.90	3571.99
1031.06	3582.47
1031.22	3563.55
1031.38	3578.37
1031.54	3551.59
1031.70	3580.01
1031.86	3551.67
1032.02	3564.69
1032.18	3542.17
1032.34	3559.29
1032.50	3545.77
1032.66	3569.45
1032.82	3521.69
1032.98	3552.32
1033.14	3534.71
1033.30	3559.21
1033.45	3531.35
1033.61	3545.28
1033.77	3530.04
1033.93	3547.33
1034.09	3524.47
1034.25	3521.61
1034.41	3517.02
1034.57	3514.72
1034.73	3512.27
1034.89	3529.55
1035.05	3499.65
1035.21	3514.40
1035.37	3483.51
1035.53	3516.77
1035.69	3516.12
1035.85	3513.25
1036.01	3478.19
1036.16	3509.15
1036.32	3478.19
1036.48	3493.34
1036.64	3479.74
1036.80	3500.55
1036.96	3495.96
1037.12	3479.50
1037.28	3469.59
1037.44	3452.96
1037.60	3463.03
1037.76	3473.27
1037.91	3483.19
1038.07	3472.13
1038.23	3485.64
1038.39	3470.32
1038.55	3461.89
1038.71	3480.07
1038.87	3449.27
1039.03	3479.66
1039.19	3461.48
1039.35	3446.40
1039.50	3450.50
1039.66	3457.22
1039.82	3449.93
1039.98	3454.76
1040.14	3439.69
1040.30	3448.04
1040.46	3424.37
1040.62	3427.07
1040.77	3447.14
1040.93	3441.82
1041.09	3437.23
1041.25	3423.79
1041.41	3423.47
1041.57	3433.46
1041.73	3433.46
1041.88	3433.46

