SpectraSuite Data File
++++++++++++++++++++++++++++++++++++
Date: Tue Sep 20 12:01:13 EDT 2022
User: Laboratoire
Dark Spectrum Present: No
Reference Spectrum Present: No
Number of Sampled Component Spectra: 1
Spectrometers: FLMT00174
Integration Time (usec): 15000 (FLMT00174)
Spectra Averaged: 25 (FLMT00174)
Boxcar Smoothing: 0 (FLMT00174)
Correct for Electrical Dark: No (FLMT00174)
Strobe/Lamp Enabled: No (FLMT00174)
Correct for Detector Non-linearity: No (FLMT00174)
Correct for Stray Light: No (FLMT00174)
Number of Pixels in Processed Spectrum: 3648
>>>>>Begin Processed Spectral Data<<<<<
345.74	3168.86
345.96	3168.86
346.18	3168.86
346.39	3192.13
346.61	3208.51
346.83	3206.22
347.05	3196.06
347.27	3207.36
347.49	3205.73
347.71	3219.65
347.93	3209.33
348.15	3213.84
348.36	3216.54
348.58	3223.01
348.80	3223.99
349.02	3213.75
349.24	3207.94
349.46	3295.26
349.68	3306.65
349.90	3315.33
350.11	3299.61
350.33	3292.31
350.55	3300.83
350.77	3311.48
350.99	3309.68
351.21	3311.81
351.43	3281.01
351.65	3325.25
351.86	3297.56
352.08	3317.05
352.30	3288.22
352.52	3320.66
352.74	3307.55
352.96	3322.21
353.18	3318.20
353.39	3325.82
353.61	3305.91
353.83	3325.57
354.05	3336.55
354.27	3316.23
354.49	3332.45
354.70	3316.15
354.92	3297.80
355.14	3322.38
355.36	3297.64
355.58	3312.06
355.80	3309.68
356.02	3316.07
356.23	3317.05
356.45	3320.66
356.67	3324.26
356.89	3332.13
357.11	3319.68
357.33	3324.43
357.54	3315.09
357.76	3313.53
357.98	3296.57
358.20	3327.29
358.42	3305.18
358.63	3326.72
358.85	3315.66
359.07	3338.68
359.29	3288.55
359.51	3300.75
359.73	3310.09
359.94	3320.25
360.16	3308.53
360.38	3317.05
360.60	3312.88
360.82	3309.76
361.03	3311.57
361.25	3306.57
361.47	3329.34
361.69	3329.18
361.91	3301.98
362.12	3311.16
362.34	3315.74
362.56	3315.17
362.78	3314.60
363.00	3334.34
363.21	3311.32
363.43	3332.62
363.65	3301.49
363.87	3321.23
364.09	3310.50
364.30	3324.75
364.52	3307.96
364.74	3342.53
364.96	3330.08
365.17	3316.15
365.39	3324.92
365.61	3315.66
365.83	3302.23
366.05	3324.34
366.26	3312.38
366.48	3318.12
366.70	3322.46
366.92	3331.80
367.13	3318.69
367.35	3324.02
367.57	3319.68
367.79	3340.24
368.01	3330.73
368.22	3340.81
368.44	3335.98
368.66	3315.33
368.88	3325.41
369.09	3331.96
369.31	3325.90
369.53	3320.25
369.75	3313.04
369.96	3326.72
370.18	3311.24
370.40	3349.82
370.62	3339.01
370.83	3334.34
371.05	3348.51
371.27	3350.15
371.49	3328.77
371.70	3329.10
371.92	3327.79
372.14	3349.90
372.36	3332.95
372.57	3365.63
372.79	3353.92
373.01	3339.50
373.22	3324.92
373.44	3358.67
373.66	3322.13
373.88	3333.19
374.09	3325.33
374.31	3331.72
374.53	3316.81
374.75	3352.61
374.96	3351.79
375.18	3355.97
375.40	3331.31
375.61	3351.79
375.83	3314.92
376.05	3329.18
376.27	3352.61
376.48	3337.78
376.70	3340.89
376.92	3327.70
377.13	3341.38
377.35	3319.84
377.57	3330.73
377.79	3353.26
378.00	3341.55
378.22	3352.93
378.44	3336.88
378.65	3349.08
378.87	3349.25
379.09	3343.68
379.30	3335.57
379.52	3348.43
379.74	3340.73
379.96	3348.84
380.17	3343.10
380.39	3335.08
380.61	3342.53
380.82	3358.18
381.04	3359.00
381.26	3350.39
381.47	3361.37
381.69	3350.97
381.91	3349.99
382.12	3368.25
382.34	3377.59
382.56	3382.83
382.77	3373.82
382.99	3349.41
383.21	3366.53
383.42	3396.02
383.64	3368.74
383.86	3383.65
384.07	3397.91
384.29	3373.91
384.51	3360.47
384.72	3380.79
384.94	3374.64
385.16	3391.35
385.37	3369.73
385.59	3380.79
385.81	3395.04
386.02	3358.01
386.24	3388.73
386.46	3389.63
386.67	3387.26
386.89	3401.59
387.11	3400.53
387.32	3396.60
387.54	3388.98
387.76	3395.53
387.97	3410.03
388.19	3409.70
388.40	3424.86
388.62	3412.00
388.84	3410.36
389.05	3398.89
389.27	3410.20
389.49	3406.92
389.70	3407.41
389.92	3406.26
390.14	3430.51
390.35	3422.48
390.57	3413.96
390.78	3430.18
391.00	3399.55
391.22	3427.81
391.43	3403.48
391.65	3417.24
391.86	3471.80
392.08	3446.81
392.30	3426.66
392.51	3445.91
392.73	3464.51
392.95	3446.08
393.16	3448.62
393.38	3474.34
393.59	3442.23
393.81	3481.63
394.03	3459.92
394.24	3467.13
394.46	3456.48
394.67	3475.98
394.89	3458.77
395.11	3494.00
395.32	3486.95
395.54	3492.69
395.75	3497.44
395.97	3481.30
396.19	3467.29
396.40	3508.58
396.62	3495.72
396.83	3507.84
397.05	3512.10
397.26	3514.81
397.48	3496.46
397.70	3515.71
397.91	3513.58
398.13	3493.51
398.34	3523.24
398.56	3532.75
398.78	3524.96
398.99	3563.63
399.21	3518.82
399.42	3561.17
399.64	3539.55
399.85	3555.77
400.07	3543.97
400.29	3566.41
400.50	3541.51
400.72	3563.88
400.93	3548.72
401.15	3552.82
401.36	3563.14
401.58	3587.47
401.79	3576.33
402.01	3587.63
402.23	3586.81
402.44	3608.36
402.66	3604.83
402.87	3609.50
403.09	3610.16
403.30	3620.81
403.52	3601.15
403.73	3597.95
403.95	3611.47
404.16	3623.92
404.38	3625.23
404.60	3623.68
404.81	3618.35
405.03	3650.63
405.24	3637.52
405.46	3646.12
405.67	3655.71
405.89	3670.94
406.10	3662.18
406.32	3685.77
406.53	3693.63
406.75	3690.36
406.96	3680.77
407.18	3683.48
407.39	3685.03
407.61	3708.05
407.82	3702.07
408.04	3732.96
408.25	3702.40
408.47	3719.85
408.68	3742.54
408.90	3717.47
409.12	3736.56
409.33	3748.68
409.55	3724.52
409.76	3742.70
409.98	3760.81
410.19	3756.71
410.41	3774.00
410.62	3774.32
410.84	3763.84
411.05	3769.98
411.27	3807.34
411.48	3811.68
411.70	3798.16
411.91	3817.25
412.12	3810.45
412.34	3822.41
412.55	3817.17
412.77	3819.46
412.98	3830.93
413.20	3838.30
413.41	3847.15
413.63	3841.01
413.84	3848.38
414.06	3878.44
414.27	3870.17
414.49	3883.03
414.70	3879.84
414.92	3883.03
415.13	3862.31
415.35	3911.37
415.56	3923.66
415.78	3917.27
415.99	3915.96
416.21	3918.67
416.42	3942.91
416.63	3957.90
416.85	3945.29
417.06	3966.67
417.28	3939.23
417.49	3959.95
417.71	3956.68
417.92	3962.41
418.14	3960.94
418.35	3981.17
418.57	4023.77
418.78	4007.14
418.99	3993.21
419.21	4037.37
419.42	4029.99
419.64	4025.08
419.85	4046.87
420.07	4086.84
420.28	4068.25
420.50	4064.73
420.71	4066.28
420.92	4071.61
421.14	4094.71
421.35	4098.23
421.57	4106.67
421.78	4105.93
422.00	4103.64
422.21	4132.56
422.42	4137.06
422.64	4130.59
422.85	4153.44
423.07	4194.81
423.28	4156.48
423.50	4168.35
423.71	4182.03
423.92	4242.90
424.14	4199.07
424.35	4220.37
424.57	4233.07
424.78	4247.32
424.99	4244.95
425.21	4267.97
425.42	4272.31
425.64	4259.04
425.85	4281.89
426.06	4270.75
426.28	4298.93
426.49	4333.09
426.71	4317.45
426.92	4318.26
427.13	4351.85
427.35	4366.35
427.56	4379.13
427.78	4376.02
427.99	4406.90
428.20	4455.72
428.42	4427.38
428.63	4448.27
428.84	4415.99
429.06	4444.58
429.27	4454.58
429.49	4460.23
429.70	4509.63
429.91	4498.98
430.13	4508.56
430.34	4515.03
430.56	4548.46
430.77	4558.70
430.98	4548.54
431.20	4592.77
431.41	4594.17
431.62	4617.10
431.84	4586.55
432.05	4639.80
432.26	4621.77
432.48	4605.06
432.69	4683.38
432.91	4679.61
433.12	4679.77
433.33	4699.76
433.55	4752.19
433.76	4745.72
433.97	4713.20
434.19	4744.73
434.40	4762.59
434.61	4787.33
434.83	4789.13
435.04	4764.72
435.25	4806.83
435.47	4840.42
435.68	4808.22
435.89	4892.27
436.11	4850.16
436.32	4915.86
436.53	4877.93
436.75	4897.51
436.96	4904.89
437.17	4886.94
437.39	4916.60
437.60	4933.15
437.81	4949.53
438.03	4948.71
438.24	4980.00
438.45	5027.93
438.67	4985.90
438.88	5018.59
439.09	5090.10
439.31	5063.97
439.52	5085.19
439.73	5087.15
439.94	5045.05
440.16	5123.69
440.37	5085.11
440.58	5151.95
440.80	5142.45
441.01	5159.08
441.22	5258.94
441.44	5233.13
441.65	5181.20
441.86	5205.61
442.08	5262.21
442.29	5233.38
442.50	5276.39
442.71	5275.40
442.93	5295.06
443.14	5309.56
443.35	5364.37
443.57	5321.20
443.78	5354.62
443.99	5384.11
444.20	5345.28
444.42	5407.46
444.63	5421.63
444.84	5455.79
445.06	5497.49
445.27	5442.93
445.48	5446.04
445.69	5506.00
445.91	5507.40
446.12	5467.99
446.33	5503.96
446.54	5582.03
446.76	5516.00
446.97	5561.22
447.18	5543.61
447.39	5616.43
447.61	5652.15
447.82	5637.24
448.03	5605.70
448.25	5684.59
448.46	5714.16
448.67	5752.58
448.88	5694.17
449.10	5790.59
449.31	5751.68
449.52	5752.42
449.73	5788.30
449.95	5855.88
450.16	5826.80
450.37	5896.84
450.58	5974.74
450.79	5857.03
451.01	5891.19
451.22	5892.99
451.43	5939.76
451.64	5978.18
451.86	6002.76
452.07	6011.36
452.28	6029.55
452.49	6128.75
452.71	6020.45
452.92	6072.80
453.13	6108.93
453.34	6118.59
453.55	6166.11
453.77	6197.56
453.98	6213.13
454.19	6161.68
454.40	6224.68
454.62	6282.51
454.83	6185.85
455.04	6321.26
455.25	6244.42
455.46	6457.74
455.68	6350.75
455.89	6344.28
456.10	6381.14
456.31	6425.71
456.52	6421.45
456.74	6461.26
456.95	6554.24
457.16	6536.30
457.37	6587.66
457.58	6583.48
457.80	6556.78
458.01	6567.26
458.22	6758.38
458.43	6666.22
458.64	6687.03
458.86	6640.99
459.07	6704.97
459.28	6697.43
459.49	6807.20
459.70	6937.13
459.91	6879.29
460.13	6854.55
460.34	6885.60
460.55	6895.67
460.76	6990.21
460.97	6964.49
461.19	6977.35
461.40	7162.32
461.61	7064.10
461.82	7080.07
462.03	7132.09
462.24	7177.48
462.46	7154.46
462.67	7116.53
462.88	7260.05
463.09	7261.93
463.30	7336.97
463.51	7267.91
463.72	7395.87
463.94	7418.48
464.15	7433.72
464.36	7378.75
464.57	7536.03
464.78	7569.46
464.99	7562.33
465.20	7513.42
465.42	7692.99
465.63	7664.24
465.84	7685.70
466.05	7797.44
466.26	7793.42
466.47	7829.63
466.68	7837.41
466.90	7921.71
467.11	7899.92
467.32	7977.08
467.53	8049.66
467.74	7951.85
467.95	8052.53
468.16	8171.56
468.37	8191.79
468.59	8174.92
468.80	8292.14
469.01	8229.15
469.22	8335.48
469.43	8476.54
469.64	8392.00
469.85	8488.09
470.06	8510.05
470.28	8615.72
470.49	8508.98
470.70	8596.14
470.91	8788.82
471.12	8660.86
471.33	8820.03
471.54	8802.01
471.75	8812.66
471.96	9010.82
472.17	8975.02
472.39	9165.07
472.60	9040.31
472.81	9258.62
473.02	9174.65
473.23	9319.40
473.44	9423.11
473.65	9389.36
473.86	9427.54
474.07	9458.26
474.28	9537.96
474.49	9746.94
474.71	9708.27
474.92	9780.69
475.13	9744.97
475.34	9808.54
475.55	9841.15
475.76	9946.57
475.97	10139.82
476.18	10106.40
476.39	10260.24
476.60	10314.80
476.81	10297.51
477.02	10461.02
477.23	10436.78
477.44	10483.47
477.65	10582.18
477.87	10739.30
478.08	10737.09
478.29	10817.94
478.50	10996.77
478.71	10945.41
478.92	11042.16
479.13	11097.78
479.34	11179.78
479.55	11293.40
479.76	11253.34
479.97	11297.41
480.18	11578.07
480.39	11414.48
480.60	11636.39
480.81	11737.97
481.02	11765.09
481.23	11797.45
481.44	12003.96
481.65	12051.15
481.86	12263.15
482.07	12020.43
482.28	12442.72
482.49	12344.25
482.71	12303.87
482.92	12500.47
483.13	12644.90
483.34	12618.85
483.55	12713.54
483.76	12730.75
483.97	12927.19
484.18	12934.23
484.39	12996.00
484.60	13004.27
484.81	13235.37
485.02	13214.56
485.23	13393.22
485.44	13447.45
485.65	13578.36
485.86	13528.55
486.07	13721.31
486.28	13728.76
486.49	13833.87
486.70	14003.76
486.91	14112.14
487.12	14038.74
487.33	14062.17
487.54	14299.33
487.75	14355.61
487.96	14393.37
488.17	14351.59
488.38	14509.94
488.59	14574.66
488.80	14702.29
489.01	14720.14
489.22	14932.89
489.43	14966.06
489.64	14866.78
489.85	15151.69
490.06	14982.37
490.26	15190.93
490.47	15114.17
490.68	15330.68
490.89	15526.39
491.10	15347.72
491.31	15585.37
491.52	15731.19
491.73	15681.30
491.94	15730.12
492.15	15900.02
492.36	16031.83
492.57	16021.26
492.78	16029.37
492.99	16097.36
493.20	16240.64
493.41	16230.15
493.62	16336.56
493.83	16369.58
494.04	16413.40
494.25	16658.18
494.46	16668.91
494.67	16591.09
494.88	16766.56
495.08	16788.10
495.29	16865.92
495.50	17059.33
495.71	16981.51
495.92	17210.06
496.13	17147.40
496.34	17130.85
496.55	17303.94
496.76	17481.38
496.97	17273.31
497.18	17539.79
497.39	17478.10
497.60	17742.29
497.81	17544.87
498.02	17735.82
498.22	17589.92
498.43	17828.96
498.64	17855.42
498.85	17927.26
499.06	18002.14
499.27	18196.37
499.48	17880.49
499.69	18191.94
499.90	18188.17
500.11	18341.28
500.32	18501.27
500.52	18342.02
500.73	18638.89
500.94	18619.07
501.15	18715.81
501.36	18731.95
501.57	18708.85
501.78	18850.08
501.99	19044.31
502.20	18963.45
502.41	19049.06
502.61	19015.14
502.82	19246.48
503.03	19046.44
503.24	19368.38
503.45	19187.01
503.66	19445.22
503.87	19366.74
504.08	19626.34
504.28	19465.94
504.49	19576.29
504.70	19640.59
504.91	19749.30
505.12	19614.95
505.33	19917.32
505.54	19923.30
505.75	19979.08
505.95	20106.79
506.16	20031.59
506.37	19955.33
506.58	20310.36
506.79	20070.42
507.00	20370.49
507.21	20213.94
507.41	20189.29
507.62	20287.67
507.83	20562.43
508.04	20361.23
508.25	20652.86
508.46	20506.23
508.67	20860.20
508.87	20665.40
509.08	20920.25
509.29	20884.20
509.50	20936.06
509.71	21031.98
509.92	21102.93
510.12	21010.19
510.33	21083.02
510.54	21037.64
510.75	21233.83
510.96	21343.11
511.17	21489.66
511.37	21393.90
511.58	21567.08
511.79	21412.82
512.00	21447.07
512.21	21749.02
512.42	21695.85
512.62	21832.41
512.83	21987.48
513.04	21848.55
513.25	22172.05
513.46	21842.41
513.66	22329.74
513.87	22217.43
514.08	22405.43
514.29	22262.89
514.50	22282.06
514.71	22443.69
514.91	22335.23
515.12	22318.85
515.33	22567.30
515.54	22501.03
515.75	22765.22
515.95	22520.78
516.16	22579.27
516.37	22745.89
516.58	22846.73
516.78	22826.09
516.99	22989.43
517.20	23016.38
517.41	23032.19
517.62	23044.89
517.82	23046.20
518.03	23345.94
518.24	23475.46
518.45	23241.00
518.66	23490.28
518.86	23309.00
519.07	23623.48
519.28	23310.72
519.49	23649.86
519.69	23683.28
519.90	23755.54
520.11	23793.96
520.32	23731.62
520.52	24001.21
520.73	23775.85
520.94	24108.69
521.15	24126.30
521.36	23928.88
521.56	24449.06
521.77	24037.50
521.98	24422.11
522.19	24141.37
522.39	24400.81
522.60	24304.47
522.81	24440.95
523.02	24353.79
523.22	24604.46
523.43	24723.57
523.64	24627.32
523.84	24768.13
524.05	24945.00
524.26	24932.79
524.47	24789.11
524.67	24923.53
524.88	25006.35
525.09	25250.39
525.30	25119.65
525.50	25056.08
525.71	25205.83
525.92	25252.60
526.13	25470.26
526.33	25370.07
526.54	25227.12
526.75	25420.70
526.95	25623.78
527.16	25243.75
527.37	25647.04
527.58	25670.71
527.78	25775.57
527.99	25957.76
528.20	26133.47
528.40	25858.64
528.61	25835.13
528.82	26136.26
529.03	26028.70
529.23	26022.31
529.44	26262.33
529.65	26246.52
529.85	26319.51
530.06	26255.86
530.27	26325.57
530.47	26108.24
530.68	26631.62
530.89	26217.03
531.09	26649.73
531.30	26574.69
531.51	26422.97
531.72	26782.43
531.92	26759.01
532.13	26844.86
532.34	26810.53
532.54	26849.61
532.75	26895.97
532.96	26940.46
533.16	27115.84
533.37	27252.07
533.58	27064.97
533.78	27295.41
533.99	27411.24
534.20	27061.61
534.40	27284.51
534.61	27448.93
534.82	27481.53
535.02	27475.47
535.23	27513.97
535.44	27683.70
535.64	27645.94
535.85	27752.52
536.06	27703.61
536.26	27690.18
536.47	27823.87
536.68	28122.71
536.88	27696.81
537.09	28057.99
537.29	27821.08
537.50	28317.51
537.71	28025.22
537.91	28223.39
538.12	28317.02
538.33	28145.81
538.53	28289.74
538.74	28418.19
538.95	28407.37
539.15	28272.13
539.36	28463.65
539.56	28617.25
539.77	28389.11
539.98	28430.72
540.18	28568.26
540.39	28490.36
540.60	28660.01
540.80	28795.75
541.01	28781.91
541.21	28793.46
541.42	28963.28
541.63	28890.12
541.83	29042.16
542.04	29062.89
542.25	28975.97
542.45	29128.75
542.66	29116.05
542.86	29282.18
543.07	28802.47
543.28	29396.30
543.48	29236.88
543.69	29359.27
543.89	29273.91
544.10	29700.30
544.31	29497.14
544.51	29439.96
544.72	29528.92
544.92	29532.86
545.13	29833.74
545.33	29787.05
545.54	29685.31
545.75	29901.74
545.95	29707.92
546.16	29761.82
546.36	30132.67
546.57	29526.63
546.78	29187.32
546.98	29471.01
547.19	28959.83
547.39	29779.60
547.60	29962.19
547.80	30323.95
548.01	30342.30
548.22	30037.89
548.42	30281.59
548.63	30381.78
548.83	30233.02
549.04	30472.55
549.24	30206.23
549.45	30393.82
549.65	30739.93
549.86	30217.12
550.07	30391.77
550.27	30696.76
550.48	30715.11
550.68	30647.44
550.89	30703.23
551.09	30890.17
551.30	30697.50
551.50	30969.63
551.71	30732.23
551.91	30866.66
552.12	31020.50
552.33	31162.55
552.53	30900.65
552.74	31216.61
552.94	31341.21
553.15	31134.86
553.35	31258.88
553.56	31036.15
553.76	31310.58
553.97	31116.59
554.17	31268.55
554.38	31662.50
554.58	31358.42
554.79	31664.30
554.99	31316.47
555.20	31405.27
555.40	31720.33
555.61	31452.79
555.81	31367.10
556.02	31890.31
556.22	31775.30
556.43	31643.49
556.63	31708.70
556.84	31598.27
557.04	31976.90
557.25	31585.25
557.45	31834.69
557.66	31797.99
557.86	31773.17
558.07	32118.70
558.27	31915.95
558.48	32021.96
558.68	31998.69
558.89	32067.91
559.09	32213.24
559.30	32117.80
559.50	32235.68
559.71	31990.25
559.91	32418.69
560.12	32208.49
560.32	32253.71
560.53	32329.32
560.73	32218.73
560.94	32486.19
561.14	32241.34
561.35	32753.82
561.55	32441.63
561.76	32643.56
561.96	32302.69
562.17	32682.80
562.37	32779.62
562.57	32529.53
562.78	32558.77
562.98	32768.24
563.19	32820.67
563.39	32845.24
563.60	32997.94
563.80	32628.73
564.01	33086.49
564.21	32848.76
564.42	32830.66
564.62	32944.12
564.82	33214.61
565.03	32962.88
565.23	33022.51
565.44	33225.75
565.64	33058.97
565.85	33304.23
566.05	33188.73
566.25	33393.69
566.46	33136.22
566.66	33322.42
566.87	33336.10
567.07	33323.48
567.28	33383.86
567.48	33561.70
567.68	33188.89
567.89	33752.90
568.09	33406.96
568.30	33394.10
568.50	33703.59
568.71	33529.43
568.91	33730.62
569.11	33516.89
569.32	33554.08
569.52	33709.07
569.73	33419.49
569.93	33833.92
570.13	33641.33
570.34	33647.72
570.54	33995.30
570.75	33780.51
570.95	33880.04
571.15	33781.98
571.36	34244.74
571.56	33879.14
571.77	33939.59
571.97	33665.66
572.17	34227.87
572.38	34101.55
572.58	34282.91
572.79	34073.86
572.99	34214.19
573.19	34141.20
573.40	34139.15
573.60	34204.60
573.81	34161.84
574.01	34291.93
574.21	34223.77
574.42	34145.70
574.62	34002.43
574.82	34391.62
575.03	34145.05
575.23	34477.88
575.43	34253.51
575.64	34198.46
575.84	34480.34
576.05	34183.30
576.25	34523.51
576.45	34324.69
576.66	34700.86
576.86	34485.58
577.06	34786.55
577.27	34686.53
577.47	34700.05
577.67	34630.82
577.88	34312.24
578.08	34719.05
578.28	34783.36
578.49	34557.18
578.69	34765.83
578.89	34586.67
579.10	34669.82
579.30	35144.21
579.50	34827.27
579.71	34664.90
579.91	35034.03
580.11	34855.94
580.32	34830.87
580.52	34771.97
580.72	35225.88
580.93	34845.45
581.13	34846.11
581.33	35140.60
581.54	34910.49
581.74	34951.86
581.94	35005.03
582.15	35185.99
582.35	35013.14
582.55	35141.01
582.76	34986.84
582.96	35333.03
583.16	35186.48
583.37	35395.54
583.57	35161.74
583.77	35442.72
583.97	34820.63
584.18	35529.14
584.38	35381.61
584.58	35159.04
584.79	35463.77
584.99	35437.31
585.19	35400.37
585.40	35332.87
585.60	35639.49
585.80	35342.62
586.00	35509.81
586.21	35404.71
586.41	35600.33
586.61	35701.09
586.82	35591.24
587.02	35591.40
587.22	35880.99
587.42	35483.68
587.63	35887.38
587.83	35436.49
588.03	35609.34
588.23	35494.58
588.44	35710.02
588.64	35495.31
588.84	35783.58
589.05	35908.84
589.25	35928.09
589.45	35882.87
589.65	35692.00
589.86	35976.42
590.06	36025.24
590.26	35745.66
590.46	36098.15
590.67	35711.66
590.87	36024.43
591.07	36142.96
591.27	35805.29
591.48	36081.85
591.68	35636.13
591.88	36397.40
592.08	35775.47
592.29	36135.51
592.49	36017.05
592.69	36306.80
592.89	36011.40
593.10	36153.04
593.30	36041.30
593.50	36445.73
593.70	35843.14
593.90	36404.20
594.11	36298.12
594.31	36393.88
594.51	36539.04
594.71	36467.03
594.92	36516.27
595.12	36290.83
595.32	36319.58
595.52	36515.36
595.72	36143.78
595.93	36590.24
596.13	36468.02
596.33	36202.84
596.53	36571.48
596.73	36583.28
596.94	36580.90
597.14	36719.75
597.34	36618.25
597.54	36933.23
597.74	36540.43
597.95	36624.40
598.15	36677.07
598.35	36760.71
598.55	36808.06
598.75	36650.53
598.96	37121.81
599.16	36784.14
599.36	36816.91
599.56	36822.64
599.76	36806.91
599.97	37056.36
600.17	36850.41
600.37	36909.80
600.57	36449.26
600.77	37062.91
600.97	36834.19
601.18	37208.07
601.38	36949.04
601.58	37210.77
601.78	36992.79
601.98	36931.68
602.18	37100.92
602.39	37347.33
602.59	37147.94
602.79	36959.69
602.99	36992.05
603.19	37152.61
603.39	37038.74
603.60	37087.89
603.80	37205.12
604.00	37186.69
604.20	37192.10
604.40	37247.23
604.60	37209.71
604.80	37163.10
605.01	37366.34
605.21	37227.16
605.41	37279.83
605.61	37019.33
605.81	37213.23
606.01	37487.08
606.21	37114.11
606.42	37425.89
606.62	37225.60
606.82	37523.54
607.02	37351.67
607.22	37422.94
607.42	37644.04
607.62	37238.54
607.82	37473.16
608.03	37466.36
608.23	37328.49
608.43	37203.56
608.63	37548.28
608.83	37541.72
609.03	37485.45
609.23	37567.94
609.43	37663.62
609.63	37485.94
609.84	37470.87
610.04	37829.75
610.24	37725.39
610.44	37715.39
610.64	37555.08
610.84	37725.88
611.04	37883.49
611.24	37805.34
611.44	37341.84
611.64	37727.76
611.85	37785.11
612.05	37738.41
612.25	37770.69
612.45	37566.22
612.65	37779.13
612.85	37873.41
613.05	37673.61
613.25	37952.71
613.45	37919.94
613.65	37897.25
613.85	37569.90
614.05	37881.20
614.25	38049.21
614.46	37840.40
614.66	37720.55
614.86	37516.74
615.06	37646.33
615.26	37874.97
615.46	37369.04
615.66	37995.47
615.86	37976.88
616.06	37728.91
616.26	37768.56
616.46	38184.54
616.66	37828.28
616.86	38177.91
617.06	37845.73
617.26	38167.42
617.46	37914.54
617.66	37848.35
617.86	37769.30
618.07	37920.19
618.27	37827.87
618.47	37849.49
618.67	37919.78
618.87	38026.36
619.07	37844.09
619.27	37830.90
619.47	37875.38
619.67	38034.63
619.87	37735.95
620.07	38059.62
620.27	37973.93
620.47	37752.99
620.67	37886.28
620.87	37946.49
621.07	38073.95
621.27	37982.20
621.47	37743.90
621.67	38000.96
621.87	37775.44
622.07	38167.42
622.27	38066.99
622.47	37808.70
622.67	38078.62
622.87	37858.50
623.07	38055.76
623.27	38363.62
623.47	37686.88
623.67	37949.11
623.87	38183.89
624.07	38077.96
624.27	37743.33
624.47	38029.22
624.67	37827.05
624.87	37982.45
625.07	37704.74
625.27	38065.43
625.47	37743.24
625.67	37682.87
625.87	38028.24
626.07	37896.84
626.27	38209.20
626.47	38018.49
626.67	37958.36
626.87	37794.03
627.07	38187.08
627.27	38004.16
627.47	38183.31
627.67	37835.73
627.87	37865.22
628.07	38146.12
628.27	37889.06
628.47	37772.24
628.67	38115.98
628.86	38246.23
629.06	38003.34
629.26	37918.63
629.46	38123.76
629.66	38036.51
629.86	37691.80
630.06	38083.78
630.26	37944.93
630.46	38274.98
630.66	37894.38
630.86	38042.66
631.06	38206.00
631.26	37947.39
631.46	38426.28
631.66	38181.59
631.86	37959.84
632.06	38392.78
632.26	38014.07
632.45	37998.34
632.65	38057.73
632.85	38188.47
633.05	38043.56
633.25	38144.81
633.45	37744.97
633.65	37888.98
633.85	38274.32
634.05	37611.60
634.25	37776.09
634.45	37897.91
634.65	38182.17
634.84	37941.41
635.04	37939.36
635.24	37675.50
635.44	37943.45
635.64	37674.19
635.84	37910.11
636.04	37948.86
636.24	37900.86
636.44	38049.38
636.64	37567.04
636.84	38245.41
637.03	37676.07
637.23	37973.68
637.43	37988.35
637.63	37806.08
637.83	38018.49
638.03	37971.88
638.23	37636.18
638.43	37816.64
638.62	38139.40
638.82	37368.63
639.02	38017.10
639.22	37705.40
639.42	37920.52
639.62	37612.75
639.82	37830.65
640.02	37794.77
640.21	37954.76
640.41	37504.86
640.61	37873.41
640.81	37807.80
641.01	37756.43
641.21	37543.04
641.41	38040.04
641.61	37623.48
641.80	37657.56
642.00	37943.04
642.20	37949.93
642.40	37508.38
642.60	37886.60
642.80	37914.95
642.99	37649.61
643.19	37938.70
643.39	37574.41
643.59	37792.07
643.79	37747.42
643.99	37751.60
644.19	37878.00
644.38	37444.49
644.58	37783.79
644.78	37627.82
644.98	37634.62
645.18	37792.89
645.38	38069.04
645.57	37758.56
645.77	37871.45
645.97	37644.37
646.17	37982.94
646.37	37796.82
646.56	37622.41
646.76	37681.23
646.96	37834.09
647.16	37526.90
647.36	37747.50
647.55	37574.00
647.75	37631.43
647.95	37463.66
648.15	37692.21
648.35	37663.70
648.55	37636.01
648.74	37569.58
648.94	37710.40
649.14	37939.36
649.34	37546.23
649.54	37488.89
649.73	37543.53
649.93	37303.91
650.13	37332.26
650.33	37213.07
650.52	37518.71
650.72	37685.98
650.92	37496.34
651.12	37305.55
651.32	37623.07
651.51	37525.01
651.71	37666.81
651.91	37411.39
652.11	37273.20
652.30	37189.39
652.50	37500.68
652.70	37478.48
652.90	37136.55
653.10	37424.01
653.29	37235.35
653.49	37458.25
653.69	37129.92
653.89	37269.92
654.08	37209.95
654.28	37497.32
654.48	37362.49
654.68	37447.52
654.87	37459.64
655.07	37115.58
655.27	37453.42
655.47	37240.59
655.66	37126.56
655.86	37071.02
656.06	37468.65
656.26	36851.48
656.45	37156.71
656.65	37140.81
656.85	37053.49
657.04	36896.86
657.24	36950.52
657.44	36828.38
657.64	37314.48
657.83	36606.29
658.03	37165.72
658.23	37039.73
658.43	36912.34
658.62	36985.74
658.82	36850.17
659.02	36796.10
659.21	36935.20
659.41	36685.02
659.61	37103.79
659.81	36976.32
660.00	36675.35
660.20	36970.59
660.40	36708.61
660.59	36873.76
660.79	36498.41
660.99	36817.56
661.19	36853.28
661.38	36814.61
661.58	36352.02
661.78	36632.75
661.97	36440.90
662.17	36955.68
662.37	36476.78
662.56	36518.56
662.76	36550.84
662.96	36709.51
663.15	36705.17
663.35	36595.97
663.55	36383.97
663.74	36250.19
663.94	36559.19
664.14	36057.85
664.33	36389.29
664.53	36208.58
664.73	36691.08
664.93	36166.64
665.12	36657.33
665.32	36414.20
665.52	36447.45
665.71	36251.83
665.91	36391.18
666.10	36305.57
666.30	36562.30
666.50	36139.69
666.69	36122.56
666.89	36430.41
667.09	36565.91
667.28	36236.68
667.48	36176.14
667.68	36239.46
667.87	36323.27
668.07	36097.33
668.27	36354.31
668.46	36316.14
668.66	35992.15
668.86	36211.86
669.05	35906.63
669.25	36197.44
669.44	36048.84
669.64	35915.31
669.84	36018.36
670.03	36231.68
670.23	36012.22
670.43	36050.31
670.62	36042.78
670.82	35999.36
671.01	36096.51
671.21	35868.78
671.41	35914.08
671.60	36026.64
671.80	36148.29
672.00	35930.46
672.19	36063.50
672.39	36029.50
672.58	35951.85
672.78	35822.99
672.98	36109.78
673.17	35910.97
673.37	35441.57
673.56	35650.06
673.76	35698.88
673.96	36027.87
674.15	35803.25
674.35	35774.25
674.54	35742.54
674.74	35695.44
674.94	35644.81
675.13	35750.57
675.33	35440.34
675.52	35897.12
675.72	35787.11
675.91	35742.22
676.11	35913.84
676.31	35532.59
676.50	35645.80
676.70	35689.54
676.89	35900.15
677.09	35859.61
677.28	35917.60
677.48	35511.20
677.68	35844.70
677.87	35507.03
678.07	35652.76
678.26	35515.96
678.46	35638.59
678.65	35383.00
678.85	35554.95
679.04	35165.26
679.24	35419.54
679.44	35162.64
679.63	35384.80
679.83	35248.66
680.02	35418.23
680.22	35270.20
680.41	35455.75
680.61	35245.62
680.80	35235.30
681.00	35357.93
681.19	35178.29
681.39	35088.59
681.59	35047.46
681.78	35011.75
681.98	35221.13
682.17	34810.06
682.37	35129.22
682.56	34799.00
682.76	35152.97
682.95	34920.73
683.15	35038.12
683.34	35046.64
683.54	35058.93
683.73	34999.70
683.93	34710.45
684.12	34921.96
684.32	35008.31
684.51	34684.81
684.71	34912.79
684.90	34833.08
685.10	34729.13
685.29	34804.16
685.49	34863.47
685.68	34823.74
685.88	34745.35
686.07	34547.35
686.27	34839.55
686.46	34563.00
686.66	34502.05
686.85	34761.98
687.05	34629.02
687.24	34514.25
687.44	34878.63
687.63	34774.02
687.83	34397.27
688.02	34601.74
688.22	34707.34
688.41	34430.94
688.61	34542.11
688.80	34568.98
689.00	34117.85
689.19	33968.35
689.39	34425.45
689.58	34257.77
689.77	34263.58
689.97	34319.61
690.16	34225.16
690.36	33962.28
690.55	33897.73
690.75	34320.84
690.94	33971.46
691.14	34169.87
691.33	33844.08
691.53	34078.12
691.72	33881.43
691.91	33931.07
692.11	33943.03
692.30	34030.36
692.50	34124.73
692.69	33763.22
692.89	33950.90
693.08	33801.07
693.28	33754.46
693.47	33952.54
693.66	33874.22
693.86	33920.92
694.05	33781.00
694.25	33701.21
694.44	33756.10
694.64	33623.55
694.83	33647.64
695.02	33634.53
695.22	33784.28
695.41	33501.82
695.61	33458.08
695.80	33511.98
695.99	33505.51
696.19	33559.98
696.38	33491.91
696.58	33233.45
696.77	33681.22
696.96	33486.34
697.16	33355.02
697.35	33342.32
697.55	33248.77
697.74	33169.88
697.93	33573.66
698.13	33216.41
698.32	33422.03
698.52	33258.68
698.71	33016.21
698.90	33507.55
699.10	33143.18
699.29	33088.62
699.49	33355.84
699.68	33046.02
699.87	33052.09
700.07	33317.67
700.26	33053.15
700.45	33063.06
700.65	32907.99
700.84	33147.19
701.04	32854.50
701.23	33055.36
701.42	32877.76
701.62	32858.35
701.81	32909.55
702.00	32845.16
702.20	32584.00
702.39	32766.44
702.58	32935.27
702.78	32603.25
702.97	32649.70
703.17	32718.02
703.36	32644.13
703.55	32430.98
703.75	32542.55
703.94	32627.42
704.13	32378.71
704.33	32386.74
704.52	32691.23
704.71	32595.47
704.91	32673.21
705.10	32424.92
705.29	32453.92
705.49	32455.64
705.68	32489.55
705.87	32390.92
706.07	32055.79
706.26	32398.70
706.45	32075.53
706.65	32006.56
706.84	32282.70
707.03	32568.85
707.23	32000.66
707.42	31990.91
707.61	32234.45
707.80	31986.16
708.00	31951.43
708.19	31881.63
708.38	32169.17
708.58	31596.72
708.77	32084.38
708.96	31677.16
709.16	31720.99
709.35	32263.95
709.54	31912.10
709.74	31827.40
709.93	31510.62
710.12	32056.04
710.31	32041.13
710.51	31797.17
710.70	31745.97
710.89	31795.04
711.09	31409.29
711.28	31377.01
711.47	31639.81
711.66	31525.28
711.86	31477.44
712.05	31482.93
712.24	31684.86
712.43	31321.39
712.63	31166.32
712.82	31550.68
713.01	31379.22
713.21	31151.24
713.40	31178.36
713.59	31432.06
713.78	31053.76
713.98	31297.14
714.17	31026.07
714.36	31128.06
714.55	30772.53
714.75	30954.15
714.94	30913.43
715.13	31075.06
715.32	30764.18
715.52	30970.37
715.71	30769.75
715.90	30799.48
716.09	30696.27
716.29	30893.28
716.48	30819.64
716.67	30362.45
716.86	30567.24
717.06	30552.42
717.25	30541.28
717.44	30656.29
717.63	30507.77
717.82	30262.67
718.02	30470.66
718.21	30564.70
718.40	30628.60
718.59	30456.82
718.79	30329.76
718.98	30326.16
719.17	30459.03
719.36	30579.37
719.55	30381.12
719.75	30342.46
719.94	30239.08
720.13	30560.36
720.32	30354.83
720.51	30110.06
720.71	30103.01
720.90	29813.59
721.09	30001.76
721.28	29865.61
721.47	30171.25
721.67	29946.46
721.86	29956.62
722.05	29927.46
722.24	29685.39
722.43	30012.49
722.63	29831.78
722.82	29820.64
723.01	29878.23
723.20	29566.93
723.39	29633.86
723.58	29799.99
723.78	29356.65
723.97	29765.42
724.16	29441.93
724.35	29519.91
724.54	29343.21
724.73	29484.93
724.93	29254.58
725.12	29411.86
725.31	28916.66
725.50	29261.71
725.69	29330.84
725.88	29165.12
726.08	28896.76
726.27	29342.64
726.46	28767.65
726.65	29402.77
726.84	28936.00
727.03	29079.76
727.23	29319.79
727.42	28940.17
727.61	29007.10
727.80	28941.16
727.99	29009.15
728.18	29054.29
728.37	28797.96
728.56	28731.28
728.76	28719.40
728.95	28712.93
729.14	28744.72
729.33	28699.58
729.52	28792.72
729.71	28700.64
729.90	28659.68
730.09	28430.64
730.29	28599.23
730.48	28214.78
730.67	28497.73
730.86	28282.20
731.05	28479.22
731.24	28246.08
731.43	28355.60
731.62	28109.19
731.81	28180.46
732.01	28483.64
732.20	28242.80
732.39	28400.41
732.58	28325.05
732.77	27857.29
732.96	28172.68
733.15	28259.51
733.34	27983.94
733.53	28052.58
733.72	28079.29
733.92	27886.13
734.11	27864.25
734.30	27866.79
734.49	28006.22
734.68	27827.39
734.87	27853.11
735.06	27839.76
735.25	27891.04
735.44	27619.07
735.63	27788.31
735.82	27823.46
736.01	27722.37
736.20	27650.61
736.40	27906.03
736.59	27750.71
736.78	27927.90
736.97	27558.61
737.16	27550.09
737.35	27711.80
737.54	27675.10
737.73	27489.97
737.92	27600.07
738.11	27672.32
738.30	27401.90
738.49	27420.50
738.68	27325.47
738.87	27386.42
739.06	27258.55
739.25	27276.16
739.44	27256.25
739.63	27145.01
739.82	27066.77
740.01	27277.71
740.20	27112.40
740.39	27186.29
740.59	27138.86
740.78	27267.15
740.97	26986.41
741.16	26928.25
741.35	26958.72
741.54	26958.48
741.73	26917.19
741.92	26811.52
742.11	26793.98
742.30	26808.40
742.49	26595.82
742.68	26856.90
742.87	26746.80
743.06	26555.52
743.25	26742.13
743.44	26553.96
743.63	26826.18
743.82	26562.15
744.01	26584.76
744.20	26441.08
744.39	26587.06
744.58	26533.89
744.77	26388.41
744.96	26219.16
745.15	26436.49
745.34	26334.83
745.53	26321.72
745.72	26143.30
745.91	26198.68
746.10	25996.67
746.29	26294.12
746.48	26231.37
746.67	26179.02
746.86	26215.47
747.04	26117.50
747.23	26036.56
747.42	26194.09
747.61	25933.35
747.80	26186.97
747.99	25765.66
748.18	26028.21
748.37	25930.64
748.56	25615.34
748.75	25726.99
748.94	25788.76
749.13	25812.52
749.32	25669.81
749.51	25802.28
749.70	25665.80
749.89	25680.63
750.08	25779.67
750.27	25400.71
750.46	25542.68
750.65	25687.18
750.84	25325.18
751.02	25525.55
751.21	25375.81
751.40	25411.44
751.59	25519.74
751.78	25462.97
751.97	25423.48
752.16	25217.21
752.35	25346.32
752.54	25025.93
752.73	25375.56
752.92	25057.39
753.11	25112.03
753.30	25179.94
753.49	25250.80
753.67	25145.53
753.86	24917.14
754.05	25057.47
754.24	24886.92
754.43	24908.54
754.62	24951.96
754.81	24700.06
755.00	24834.82
755.19	24881.59
755.38	24582.75
755.56	24826.54
755.75	25018.40
755.94	24719.47
756.13	24753.14
756.32	24777.39
756.51	24705.71
756.70	24719.06
756.89	24685.48
757.08	24650.09
757.26	24616.83
757.45	24590.21
757.64	24321.43
757.83	24545.89
758.02	24358.05
758.21	24262.20
758.40	24328.31
758.59	24396.63
758.77	24225.50
758.96	24277.03
759.15	24390.32
759.34	24039.79
759.53	24216.17
759.72	24262.12
759.91	24072.81
760.09	24295.05
760.28	24324.95
760.47	24078.87
760.66	24285.47
760.85	23979.75
761.04	24240.41
761.23	24128.10
761.41	24035.45
761.60	24166.93
761.79	23964.18
761.98	23826.07
762.17	24051.18
762.36	23775.52
762.54	24011.53
762.73	23794.53
762.92	23698.77
763.11	23887.18
763.30	23906.59
763.49	23872.84
763.67	23895.78
763.86	23928.06
764.05	24010.47
764.24	23794.53
764.43	24057.00
764.61	23684.84
764.80	23781.75
764.99	23917.82
765.18	23626.84
765.37	23792.56
765.55	23726.95
765.74	23683.12
765.93	23533.54
766.12	23711.55
766.31	23622.50
766.49	23646.09
766.68	23680.58
766.87	23567.78
767.06	23503.88
767.25	23540.99
767.43	23559.83
767.62	23455.88
767.81	23512.73
768.00	23432.86
768.19	23295.56
768.37	23418.93
768.56	23376.66
768.75	23432.45
768.94	23448.10
769.12	23336.28
769.31	23302.94
769.50	23332.10
769.69	23491.35
769.88	23139.18
770.06	23521.17
770.25	23193.16
770.44	23238.38
770.63	23359.79
770.81	23280.82
771.00	23174.32
771.19	23265.25
771.38	23182.35
771.56	23324.48
771.75	22894.32
771.94	23145.08
772.13	23091.09
772.31	22891.29
772.50	23153.43
772.69	22922.83
772.88	23171.13
773.06	22944.62
773.25	23033.67
773.44	23019.58
773.62	23042.93
773.81	23074.14
774.00	22926.85
774.19	22948.55
774.37	22856.64
774.56	23049.07
774.75	22668.39
774.94	22850.58
775.12	22724.10
775.31	22861.39
775.50	22782.92
775.68	22794.14
775.87	22734.91
776.06	22622.60
776.25	22812.32
776.43	22606.38
776.62	22837.15
776.81	22581.39
776.99	22759.32
777.18	22797.74
777.37	22539.37
777.55	22665.77
777.74	22711.65
777.93	22667.08
778.12	22547.48
778.30	22460.48
778.49	22498.74
778.68	22534.37
778.86	22552.89
779.05	22640.70
779.24	22536.42
779.42	22469.99
779.61	22328.59
779.80	22430.42
779.98	22437.71
780.17	22510.04
780.36	22240.94
780.54	22507.26
780.73	22137.31
780.92	22518.89
781.10	22394.54
781.29	22256.26
781.48	22236.44
781.66	22311.88
781.85	22296.24
782.04	22218.09
782.22	22279.11
782.41	22080.05
782.60	22174.67
782.78	22141.33
782.97	22243.07
783.16	21944.48
783.34	21977.57
783.53	22120.03
783.71	22001.08
783.90	22059.41
784.09	21986.83
784.27	22026.23
784.46	21998.87
784.65	22020.82
784.83	21883.61
785.02	21839.95
785.20	22095.45
785.39	21720.10
785.58	22039.91
785.76	21962.33
785.95	21866.08
786.14	21951.11
786.32	21999.94
786.51	21843.55
786.69	22003.38
786.88	21861.66
787.07	21778.43
787.25	21806.77
787.44	21795.06
787.62	21706.50
787.81	21905.81
788.00	21916.95
788.18	21816.11
788.37	21828.15
788.55	22138.95
788.74	21901.06
788.93	21947.43
789.11	22063.18
789.30	21940.38
789.48	21870.50
789.67	21970.85
789.86	21844.37
790.04	21871.98
790.23	21807.75
790.41	21780.80
790.60	21819.30
790.78	21855.76
790.97	21638.84
791.16	21848.80
791.34	22108.72
791.53	21858.13
791.71	22125.44
791.90	22021.32
792.08	22062.19
792.27	22084.15
792.46	22034.51
792.64	22052.86
792.83	22006.41
793.01	22070.22
793.20	22027.38
793.38	22077.43
793.57	21953.16
793.75	22006.41
793.94	22083.66
794.12	22267.81
794.31	22034.75
794.50	22189.33
794.68	22348.34
794.87	22207.68
795.05	22422.06
795.24	22187.20
795.42	22249.13
795.61	22413.71
795.79	22515.12
795.98	22213.66
796.16	22383.23
796.35	22339.57
796.53	22207.76
796.72	22378.24
796.90	22473.67
797.09	22372.67
797.27	22338.34
797.46	22204.65
797.64	22418.79
797.83	22312.70
798.01	22332.36
798.20	22502.67
798.38	22427.72
798.57	22645.78
798.75	22565.09
798.94	22291.81
799.12	22834.44
799.31	22570.50
799.49	22620.88
799.68	22498.66
799.86	22405.19
800.05	22373.40
800.23	22340.55
800.42	22201.87
800.60	22434.11
800.79	22180.40
800.97	22327.04
801.16	22539.86
801.34	22325.07
801.53	22329.90
801.71	22436.32
801.90	22314.09
802.08	22508.24
802.27	22343.99
802.45	22251.92
802.64	22356.61
802.82	22489.65
803.00	22179.42
803.19	22306.89
803.37	22526.02
803.56	22329.17
803.74	22278.21
803.93	22345.31
804.11	22279.20
804.30	22202.44
804.48	22270.76
804.67	22248.40
804.85	22176.63
805.03	22351.86
805.22	22144.36
805.40	22065.47
805.59	22202.52
805.77	22251.26
805.96	22132.15
806.14	22111.75
806.32	22190.23
806.51	22391.75
806.69	22224.31
806.88	22155.91
807.06	22181.88
807.25	22278.38
807.43	22258.14
807.61	22316.96
807.80	22260.93
807.98	22421.82
808.17	22201.78
808.35	22113.56
808.53	22347.60
808.72	22208.34
808.90	22183.02
809.09	22207.19
809.27	22245.04
809.45	21969.22
809.64	22240.04
809.82	22009.85
810.01	22070.55
810.19	22079.72
810.37	21971.84
810.56	21971.18
810.74	22091.85
810.93	21898.27
811.11	22022.22
811.29	21914.08
811.48	21983.72
811.66	21939.89
811.84	21853.06
812.03	21856.74
812.21	21805.79
812.40	21866.65
812.58	21942.92
812.76	21750.25
812.95	21987.48
813.13	21697.00
813.31	21795.63
813.50	21844.29
813.68	21764.09
813.86	21923.18
814.05	21904.17
814.23	21584.53
814.42	21704.37
814.60	21537.67
814.78	21670.62
814.97	21578.05
815.15	21524.72
815.33	21615.25
815.52	21509.16
815.70	21491.14
815.88	21547.99
816.07	21365.88
816.25	21506.38
816.43	21456.16
816.62	21306.74
816.80	21311.00
816.98	21295.19
817.17	21258.24
817.35	21281.84
817.53	21274.63
817.72	21400.21
817.90	21131.19
818.08	21224.25
818.26	21341.64
818.45	21200.16
818.63	21324.43
818.81	21338.61
819.00	21085.56
819.18	21305.76
819.36	21264.47
819.55	21255.21
819.73	21115.54
819.91	21248.99
820.09	21090.39
820.28	21318.21
820.46	21101.21
820.64	21346.55
820.83	21013.06
821.01	21098.58
821.19	21056.89
821.38	21114.07
821.56	20971.94
821.74	21085.15
821.92	20874.29
822.11	21128.07
822.29	20834.15
822.47	20838.82
822.65	20906.73
822.84	20980.13
823.02	20731.26
823.20	20985.29
823.39	20783.85
823.57	20830.55
823.75	20871.75
823.93	20779.43
824.12	20817.52
824.30	20648.60
824.48	20609.12
824.66	20806.46
824.85	20339.85
825.03	20703.65
825.21	20671.71
825.39	20617.88
825.58	20715.45
825.76	20621.82
825.94	20688.99
826.12	20631.56
826.31	20510.82
826.49	20571.85
826.67	20608.79
826.85	20449.38
827.03	20514.83
827.22	20609.69
827.40	20407.27
827.58	20390.56
827.76	20498.86
827.95	20347.63
828.13	20356.73
828.31	20360.41
828.49	20366.56
828.67	20326.58
828.86	20167.99
829.04	20244.58
829.22	20199.12
829.40	20094.34
829.58	20086.64
829.77	20231.06
829.95	20203.79
830.13	20136.94
830.31	20169.13
830.49	20153.16
830.68	20197.23
830.86	20038.47
831.04	19935.09
831.22	19967.29
831.40	19910.68
831.59	20006.77
831.77	19809.18
831.95	20021.60
832.13	19785.92
832.31	20003.74
832.50	19963.52
832.68	19820.90
832.86	19900.28
833.04	20038.06
833.22	19760.28
833.40	20162.09
833.59	19863.66
833.77	20026.35
833.95	19586.77
834.13	20124.98
834.31	19846.46
834.49	19867.59
834.67	19856.78
834.86	19887.50
835.04	19765.85
835.22	19843.75
835.40	19764.54
835.58	19707.60
835.76	19672.95
835.95	19663.29
836.13	19610.37
836.31	19485.44
836.49	19611.59
836.67	19683.36
836.85	19612.09
837.03	19599.39
837.21	19658.37
837.40	19598.41
837.58	19403.03
837.76	19560.40
837.94	19470.86
838.12	19643.13
838.30	19474.71
838.48	19517.47
838.66	19489.95
838.85	19426.46
839.03	19467.01
839.21	19374.52
839.39	19383.86
839.57	19437.44
839.75	19340.61
839.93	19302.19
840.11	19345.19
840.29	19286.21
840.47	19374.52
840.66	19326.19
840.84	19319.55
841.02	19229.69
841.20	19248.53
841.38	19210.36
841.56	19175.13
841.74	19357.24
841.92	19165.63
842.10	19047.01
842.28	19128.36
842.46	18999.83
842.65	18930.11
842.83	18991.96
843.01	19072.00
843.19	18823.70
843.37	18912.25
843.55	18805.02
843.73	18944.37
843.91	18909.71
844.09	18881.62
844.27	19010.56
844.45	18847.62
844.63	18788.23
844.81	18899.88
844.99	18882.11
845.17	18753.66
845.35	18894.97
845.54	18776.76
845.72	18829.27
845.90	18759.72
846.08	18791.18
846.26	18595.23
846.44	18834.10
846.62	18561.56
846.80	18645.61
846.98	18671.66
847.16	18591.21
847.34	18742.27
847.52	18646.26
847.70	18478.99
847.88	18608.75
848.06	18460.14
848.24	18576.55
848.42	18502.33
848.60	18390.10
848.78	18532.23
848.96	18457.69
849.14	18414.84
849.32	18493.65
849.50	18304.25
849.68	18435.73
849.86	18362.50
850.04	18291.80
850.22	18253.71
850.40	18083.07
850.58	18246.83
850.76	18475.38
850.94	17959.95
851.12	18191.53
851.30	18076.85
851.48	18237.24
851.66	18082.09
851.84	18055.55
852.02	18039.33
852.20	18109.04
852.38	17973.87
852.56	18058.25
852.74	18019.91
852.92	17948.64
853.10	17890.56
853.28	17991.57
853.46	17721.40
853.64	17913.42
853.82	17843.46
854.00	17851.24
854.18	17749.01
854.36	17744.50
854.54	17840.67
854.72	17693.47
854.90	17646.86
855.07	17703.54
855.25	17673.23
855.43	17706.16
855.61	17604.34
855.79	17567.80
855.97	17595.49
856.15	17650.79
856.33	17545.11
856.51	17715.18
856.69	17444.11
856.87	17636.12
857.05	17563.79
857.23	17583.70
857.41	17416.42
857.59	17488.59
857.77	17412.98
857.94	17456.64
858.12	17555.60
858.30	17509.15
858.48	17433.87
858.66	17391.84
858.84	17537.66
859.02	17377.10
859.20	17345.39
859.38	17488.83
859.56	17449.10
859.74	17310.66
859.92	17353.09
860.09	17243.49
860.27	17339.33
860.45	17169.11
860.63	17135.52
860.81	17249.22
860.99	17125.44
861.17	16936.37
861.35	16639.50
861.53	16586.74
861.70	16565.61
861.88	16950.71
862.06	16966.68
862.24	16674.23
862.42	16674.73
862.60	16937.93
862.78	16931.13
862.96	16958.41
863.14	16791.62
863.31	16878.21
863.49	16784.41
863.67	16805.14
863.85	16749.68
864.03	16844.46
864.21	16799.90
864.39	16748.29
864.56	16643.92
864.74	16724.20
864.92	16628.11
865.10	16638.76
865.28	16570.28
865.46	16742.88
865.64	16355.90
865.81	16584.37
865.99	16307.73
866.17	16468.78
866.35	16371.54
866.53	16357.45
866.71	16325.10
866.88	16324.69
867.06	16216.31
867.24	16288.56
867.42	16198.29
867.60	16294.05
867.78	16204.43
867.95	16379.74
868.13	16207.62
868.31	16389.07
868.49	16312.97
868.67	16246.29
868.84	16156.10
869.02	16246.54
869.20	15932.13
869.38	16119.23
869.56	15997.99
869.73	15952.04
869.91	15992.83
870.09	15970.72
870.27	15803.93
870.45	15948.84
870.62	15768.38
870.80	15945.48
870.98	15846.77
871.16	15902.23
871.34	15848.74
871.51	15906.74
871.69	15793.69
871.87	15867.58
872.05	15813.84
872.23	15841.94
872.40	15726.35
872.58	15799.18
872.76	15709.89
872.94	15653.94
873.11	15736.67
873.29	15570.95
873.47	15610.44
873.65	15480.92
873.83	15472.08
874.00	15466.67
874.18	15523.60
874.36	15401.63
874.54	15449.06
874.71	15350.59
874.89	15166.77
875.07	15318.81
875.25	15269.41
875.42	15299.80
875.60	15259.42
875.78	15359.27
875.96	15220.18
876.13	15302.83
876.31	15138.75
876.49	15134.73
876.66	15052.41
876.84	15316.35
877.02	15152.59
877.20	15219.03
877.37	15199.78
877.55	15175.12
877.73	15091.48
877.91	15059.37
878.08	15218.62
878.26	15185.28
878.44	15098.85
878.61	15119.91
878.79	15034.79
878.97	15036.35
879.15	15119.99
879.32	15091.07
879.50	15024.47
879.68	15165.21
879.85	15016.36
880.03	15153.99
880.21	15000.80
880.38	15088.37
880.56	14973.68
880.74	15188.23
880.92	14967.54
881.09	15095.33
881.27	15067.07
881.45	15110.16
881.62	15087.39
881.80	15009.81
881.98	14990.23
882.15	15096.72
882.33	14958.69
882.51	15007.60
882.68	14930.27
882.86	15058.39
883.04	14859.65
883.21	14924.70
883.39	15079.36
883.57	14910.52
883.74	14973.76
883.92	14975.32
884.10	14979.58
884.27	14940.10
884.45	14897.33
884.63	15026.36
884.80	14916.18
884.98	14956.97
885.16	14915.85
885.33	14887.34
885.51	14939.28
885.69	14914.05
885.86	14912.00
886.04	15066.17
886.21	14845.81
886.39	15012.76
886.57	14780.76
886.74	15034.79
886.92	14921.34
887.10	14966.23
887.27	14936.08
887.45	14961.56
887.62	14875.05
887.80	14968.36
887.98	15063.63
888.15	15006.45
888.33	14952.14
888.51	15098.69
888.68	14970.32
888.86	15051.59
889.03	14942.55
889.21	15064.86
889.39	15071.41
889.56	15060.93
889.74	15011.53
889.91	15051.83
890.09	15003.17
890.27	15055.19
890.44	15015.05
890.62	15020.21
890.79	14999.81
890.97	14998.34
891.14	14971.55
891.32	14991.38
891.50	14909.62
891.67	14970.65
891.85	14916.09
892.02	14907.57
892.20	15003.09
892.38	14908.56
892.55	14817.71
892.73	14954.76
892.90	14837.45
893.08	14878.74
893.25	14864.98
893.43	15022.51
893.60	14821.15
893.78	14961.39
893.96	14889.80
894.13	14969.75
894.31	15052.98
894.48	14972.62
894.66	14978.02
894.83	14992.61
895.01	15008.17
895.18	15027.59
895.36	14993.02
895.53	15037.42
895.71	14968.11
895.89	14957.46
896.06	14881.03
896.24	14921.01
896.41	14911.10
896.59	14949.52
896.76	14742.26
896.94	14868.34
897.11	14909.70
897.29	14939.93
897.46	14865.06
897.64	14872.92
897.81	14852.69
897.99	14747.67
898.16	14976.55
898.34	14888.98
898.51	14851.46
898.69	14811.48
898.86	14831.06
899.04	14830.49
899.21	14777.73
899.39	14842.28
899.56	14758.81
899.74	14918.06
899.91	14770.69
900.09	14702.20
900.26	14782.73
900.44	14643.14
900.61	14653.79
900.79	14796.82
900.96	14707.20
901.14	14690.57
901.31	14611.68
901.49	14590.96
901.66	14667.63
901.84	14689.75
902.01	14553.77
902.19	14602.26
902.36	14486.27
902.54	14515.92
902.71	14502.98
902.88	14514.04
903.06	14325.79
903.23	14474.63
903.41	14311.94
903.58	14276.23
903.76	14238.13
903.93	14272.95
904.11	14365.27
904.28	14252.63
904.45	14204.63
904.63	14158.02
904.80	14046.12
904.98	14141.55
905.15	14003.68
905.33	14139.75
905.50	14024.82
905.68	14059.96
905.85	13999.91
906.02	13953.22
906.20	14064.47
906.37	13905.54
906.55	13822.15
906.72	13985.74
906.90	13809.62
907.07	13802.00
907.24	13878.76
907.42	13756.86
907.59	13742.61
907.77	13724.18
907.94	13708.69
908.11	13755.88
908.29	13666.01
908.46	13697.80
908.64	13601.54
908.81	13560.67
908.98	13532.98
909.16	13570.25
909.33	13484.89
909.51	13416.41
909.68	13364.96
909.85	13395.19
910.03	13414.28
910.20	13268.38
910.37	13306.39
910.55	13256.67
910.72	13201.29
910.90	13132.07
911.07	13124.37
911.24	13062.60
911.42	13168.19
911.59	12976.50
911.76	13067.84
911.94	12984.45
912.11	12980.68
912.29	13013.53
912.46	12888.28
912.63	12932.84
912.81	12798.99
912.98	12951.85
913.15	12803.98
913.33	12824.13
913.50	12809.14
913.67	12724.69
913.85	12677.09
914.02	12649.48
914.19	12634.82
914.37	12584.19
914.54	12606.56
914.71	12535.70
914.89	12550.85
915.06	12545.77
915.23	12453.70
915.41	12426.01
915.58	12383.33
915.75	12385.21
915.93	12345.07
916.10	12256.27
916.27	12256.19
916.45	12280.77
916.62	12128.32
916.79	12201.14
916.97	12096.86
917.14	12116.85
917.31	12032.55
917.49	12046.81
917.66	12022.64
917.83	11985.29
918.00	11889.61
918.18	11881.33
918.35	11834.97
918.52	11900.01
918.70	11797.20
918.87	11820.88
919.04	11810.14
919.21	11745.51
919.39	11673.18
919.56	11736.83
919.73	11628.86
919.91	11686.77
920.08	11619.77
920.25	11577.99
920.42	11703.40
920.60	11554.48
920.77	11506.06
920.94	11555.13
921.11	11514.01
921.29	11556.03
921.46	11381.63
921.63	11484.44
921.81	11355.99
921.98	11351.89
922.15	11309.13
922.32	11332.89
922.50	11262.44
922.67	11187.48
922.84	11170.52
923.01	11110.89
923.19	11082.71
923.36	11099.91
923.53	10923.37
923.70	11030.85
923.87	11012.75
924.05	11011.11
924.22	10915.26
924.39	10993.25
924.56	10842.11
924.74	10879.63
924.91	10858.33
925.08	10776.08
925.25	10738.73
925.43	10750.61
925.60	10630.43
925.77	10737.66
925.94	10605.37
926.11	10644.85
926.29	10584.07
926.46	10574.81
926.63	10528.36
926.80	10493.96
926.97	10415.23
927.15	10411.87
927.32	10285.96
927.49	10247.63
927.66	10280.15
927.83	10313.65
928.01	10181.60
928.18	10186.92
928.35	10125.73
928.52	10256.96
928.69	10084.77
928.87	10093.86
929.04	10123.68
929.21	10090.18
929.38	10005.72
929.55	10058.23
929.72	9991.06
929.90	9980.49
930.07	10001.87
930.24	9911.43
930.41	9924.13
930.58	9906.11
930.75	9923.64
930.93	9893.66
931.10	9897.67
931.27	9774.55
931.44	9804.53
931.61	9747.02
931.78	9778.64
931.95	9713.60
932.13	9662.64
932.30	9723.10
932.47	9594.24
932.64	9652.08
932.81	9586.05
932.98	9580.56
933.15	9581.22
933.33	9506.75
933.50	9582.53
933.67	9508.64
933.84	9526.50
934.01	9525.51
934.18	9487.17
934.35	9486.44
934.52	9454.65
934.70	9495.04
934.87	9404.85
935.04	9409.35
935.21	9410.01
935.38	9372.08
935.55	9359.71
935.72	9371.34
935.89	9249.77
936.06	9286.64
936.24	9175.15
936.41	9239.86
936.58	9152.70
936.75	9124.52
936.92	9106.33
937.09	9132.47
937.26	9010.57
937.43	9042.52
937.60	9019.34
937.77	9008.60
937.94	8984.85
938.12	8990.17
938.29	8905.96
938.46	8977.64
938.63	8865.25
938.80	8918.90
938.97	8889.82
939.14	8838.05
939.31	8832.48
939.48	8813.80
939.65	8737.86
939.82	8755.80
939.99	8693.46
940.16	8682.16
940.33	8684.62
940.50	8641.77
940.67	8602.45
940.85	8649.06
941.02	8588.44
941.19	8595.16
941.36	8551.58
941.53	8546.58
941.70	8516.93
941.87	8432.39
942.04	8482.93
942.21	8458.77
942.38	8455.24
942.55	8386.84
942.72	8435.50
942.89	8404.86
943.06	8327.61
943.23	8337.69
943.40	8312.05
943.57	8311.31
943.74	8270.76
943.91	8296.40
944.08	8256.84
944.25	8306.81
944.42	8188.35
944.59	8179.59
944.76	8239.47
944.93	8203.59
945.10	8180.41
945.27	8171.64
945.44	8086.94
945.61	8162.14
945.78	8110.04
945.95	8093.90
946.12	8013.87
946.29	8083.00
946.46	8020.01
946.63	7970.45
946.80	7998.14
946.97	7947.10
947.14	7922.28
947.31	7971.43
947.48	7882.47
947.65	7867.72
947.82	7864.28
947.99	7889.27
948.16	7801.04
948.33	7879.03
948.50	7791.13
948.67	7814.39
948.84	7760.33
949.01	7740.34
949.18	7733.79
949.35	7749.27
949.52	7682.01
949.68	7682.91
949.85	7643.67
950.02	7625.49
950.19	7578.80
950.36	7576.34
950.53	7553.73
950.70	7515.72
950.87	7470.01
951.04	7585.84
951.21	7495.81
951.38	7457.56
951.55	7483.28
951.72	7467.30
951.89	7424.30
952.06	7470.99
952.23	7440.35
952.39	7395.54
952.56	7345.41
952.73	7397.59
952.90	7306.66
953.07	7367.04
953.24	7276.19
953.41	7324.11
953.58	7258.90
953.75	7317.97
953.92	7250.71
954.09	7251.94
954.25	7208.52
954.42	7211.14
954.59	7205.25
954.76	7156.42
954.93	7162.73
955.10	7175.92
955.27	7102.36
955.44	7137.91
955.61	7084.99
955.77	7141.35
955.94	7098.34
956.11	7112.43
956.28	7076.22
956.45	7052.06
956.62	7056.24
956.79	7071.88
956.96	7051.40
957.12	7048.86
957.29	7030.27
957.46	7013.23
957.63	6973.74
957.80	6973.17
957.97	6946.22
958.14	6992.67
958.30	6888.38
958.47	6896.74
958.64	6858.98
958.81	6889.37
958.98	6822.36
959.15	6835.22
959.32	6820.56
959.48	6803.02
959.65	6771.16
959.82	6800.32
959.99	6736.92
960.16	6786.40
960.33	6718.48
960.49	6707.26
960.66	6690.96
960.83	6693.25
961.00	6654.42
961.17	6668.19
961.33	6619.28
961.50	6625.83
961.67	6597.24
961.84	6609.12
962.01	6581.43
962.18	6624.28
962.34	6591.35
962.51	6553.34
962.68	6538.26
962.85	6583.81
963.02	6529.25
963.18	6516.15
963.35	6447.17
963.52	6475.92
963.69	6482.97
963.86	6458.97
964.02	6435.78
964.19	6456.34
964.36	6410.55
964.53	6402.44
964.69	6353.37
964.86	6430.13
965.03	6342.40
965.20	6344.20
965.37	6311.02
965.53	6310.20
965.70	6293.49
965.87	6313.48
966.04	6255.89
966.20	6242.78
966.37	6232.54
966.54	6203.71
966.71	6237.13
966.87	6192.40
967.04	6179.62
967.21	6177.25
967.38	6145.14
967.54	6166.35
967.71	6133.58
967.88	6146.12
968.05	6114.17
968.21	6108.60
968.38	6073.37
968.55	6082.71
968.72	6047.98
968.88	6046.59
969.05	6060.68
969.22	6007.68
969.39	5995.22
969.55	6018.73
969.72	5982.94
969.89	5969.83
970.05	5998.42
970.22	5971.30
970.39	5948.37
970.56	5969.91
970.72	5910.93
970.89	5929.69
971.06	5898.56
971.22	5929.12
971.39	5893.64
971.56	5901.43
971.73	5844.00
971.89	5881.52
972.06	5850.47
972.23	5885.70
972.39	5800.99
972.56	5854.00
972.73	5789.44
972.89	5858.50
973.06	5807.47
973.23	5800.83
973.39	5776.42
973.56	5762.98
973.73	5760.03
973.89	5765.93
974.06	5709.25
974.23	5729.23
974.39	5706.38
974.56	5690.90
974.73	5648.87
974.89	5646.17
975.06	5647.97
975.23	5682.29
975.39	5593.00
975.56	5631.91
975.73	5617.33
975.89	5609.88
976.06	5592.35
976.23	5549.42
976.39	5586.61
976.56	5574.24
976.73	5538.85
976.89	5535.82
977.06	5503.96
977.23	5501.75
977.39	5492.00
977.56	5488.72
977.72	5423.02
977.89	5489.38
978.06	5460.46
978.22	5421.06
978.39	5442.27
978.56	5428.18
978.72	5400.90
978.89	5426.63
979.05	5409.83
979.22	5401.07
979.39	5378.05
979.55	5382.55
979.72	5348.56
979.88	5372.31
980.05	5319.15
980.22	5369.04
980.38	5336.60
980.55	5319.15
980.71	5296.54
980.88	5296.62
981.05	5309.73
981.21	5273.44
981.38	5287.12
981.54	5313.41
981.71	5266.31
981.88	5281.30
982.04	5245.99
982.21	5255.42
982.37	5227.89
982.54	5232.40
982.70	5211.34
982.87	5213.96
983.04	5170.96
983.20	5225.19
983.37	5153.26
983.53	5169.89
983.70	5149.58
983.86	5161.54
984.03	5144.83
984.20	5154.16
984.36	5128.85
984.53	5136.31
984.69	5107.39
984.86	5111.40
985.02	5085.52
985.19	5088.38
985.35	5071.84
985.52	5085.93
985.68	5056.60
985.85	5064.95
986.02	5056.35
986.18	5038.17
986.35	5026.21
986.51	5028.83
986.68	5022.44
986.84	5017.44
987.01	4995.16
987.17	5004.33
987.34	4988.93
987.50	4970.26
987.67	4947.24
987.83	4960.51
988.00	4963.70
988.16	4949.86
988.33	4924.38
988.49	4946.83
988.66	4911.19
988.82	4919.55
988.99	4907.67
989.15	4941.75
989.32	4864.83
989.48	4902.51
989.65	4846.72
989.81	4856.39
989.98	4819.36
990.14	4835.99
990.31	4827.80
990.47	4820.35
990.64	4818.05
990.80	4802.32
990.97	4776.85
991.13	4793.89
991.30	4756.61
991.46	4762.02
991.63	4746.37
991.79	4771.93
991.95	4702.87
992.12	4759.97
992.28	4721.80
992.45	4711.39
992.61	4696.24
992.78	4698.61
992.94	4696.40
993.11	4721.71
993.27	4661.18
993.44	4676.17
993.60	4675.35
993.76	4682.07
993.93	4672.40
994.09	4668.88
994.26	4649.46
994.42	4650.61
994.59	4631.11
994.75	4639.14
994.91	4647.09
995.08	4588.02
995.24	4582.53
995.41	4607.19
995.57	4596.62
995.74	4587.94
995.90	4551.73
996.06	4573.69
996.23	4542.23
996.39	4517.74
996.56	4524.95
996.72	4532.97
996.88	4541.00
997.05	4530.02
997.21	4510.77
997.38	4511.68
997.54	4466.70
997.70	4513.15
997.87	4499.80
998.03	4491.93
998.20	4448.76
998.36	4459.66
998.52	4425.01
998.69	4485.87
998.85	4409.77
999.02	4450.07
999.18	4403.87
999.34	4441.80
999.51	4434.18
999.67	4430.49
999.83	4402.31
1000.00	4400.27
1000.16	4380.11
1000.33	4383.72
1000.49	4371.18
1000.65	4385.44
1000.82	4370.61
1000.98	4353.00
1001.14	4360.13
1001.31	4374.87
1001.47	4357.83
1001.63	4366.43
1001.80	4322.20
1001.96	4307.62
1002.12	4311.63
1002.29	4322.12
1002.45	4300.00
1002.61	4294.84
1002.78	4275.75
1002.94	4252.16
1003.10	4233.40
1003.27	4274.77
1003.43	4261.90
1003.59	4239.95
1003.76	4248.06
1003.92	4256.42
1004.08	4238.23
1004.25	4263.46
1004.41	4216.36
1004.57	4218.82
1004.74	4216.77
1004.90	4243.23
1005.06	4212.51
1005.23	4195.30
1005.39	4197.27
1005.55	4191.37
1005.71	4183.67
1005.88	4177.12
1006.04	4190.88
1006.20	4195.47
1006.37	4140.17
1006.53	4167.53
1006.69	4143.94
1006.85	4171.14
1007.02	4133.05
1007.18	4154.26
1007.34	4150.33
1007.51	4156.64
1007.67	4122.23
1007.83	4132.15
1007.99	4120.60
1008.16	4130.75
1008.32	4087.58
1008.48	4141.48
1008.64	4096.51
1008.81	4107.24
1008.97	4090.45
1009.13	4081.68
1009.29	4076.44
1009.46	4044.82
1009.62	4089.22
1009.78	4055.14
1009.95	4072.10
1010.11	4056.37
1010.27	4023.28
1010.43	4045.64
1010.59	4043.10
1010.76	4028.60
1010.92	4040.40
1011.08	4023.69
1011.24	4010.82
1011.41	4031.71
1011.57	4000.75
1011.73	3994.52
1011.89	3969.45
1012.06	4003.45
1012.22	3951.27
1012.38	3976.17
1012.54	3973.31
1012.70	3936.61
1012.87	3935.21
1013.03	3971.01
1013.19	3945.04
1013.35	3941.11
1013.51	3896.30
1013.68	3962.66
1013.84	3932.67
1014.00	3937.10
1014.16	3929.15
1014.32	3932.84
1014.49	3914.90
1014.65	3927.27
1014.81	3893.02
1014.97	3914.08
1015.13	3878.03
1015.30	3915.31
1015.46	3886.23
1015.62	3885.00
1015.78	3880.66
1015.94	3891.63
1016.10	3877.05
1016.27	3866.32
1016.43	3841.33
1016.59	3877.71
1016.75	3846.17
1016.91	3855.75
1017.07	3857.55
1017.24	3852.72
1017.40	3821.43
1017.56	3840.68
1017.72	3823.23
1017.88	3822.82
1018.04	3809.14
1018.21	3816.68
1018.37	3793.66
1018.53	3820.04
1018.69	3785.22
1018.85	3807.58
1019.01	3798.41
1019.17	3788.66
1019.34	3783.91
1019.50	3783.66
1019.66	3756.38
1019.82	3768.67
1019.98	3760.56
1020.14	3771.21
1020.30	3763.18
1020.46	3771.05
1020.63	3735.33
1020.79	3742.21
1020.95	3751.31
1021.11	3758.60
1021.27	3732.38
1021.43	3735.90
1021.59	3764.90
1021.75	3737.95
1021.91	3709.28
1022.07	3728.20
1022.24	3731.07
1022.40	3719.28
1022.56	3695.19
1022.72	3731.56
1022.88	3683.80
1023.04	3702.24
1023.20	3696.34
1023.36	3707.48
1023.52	3686.67
1023.68	3704.28
1023.84	3677.91
1024.01	3686.51
1024.17	3665.37
1024.33	3666.03
1024.49	3666.44
1024.65	3652.76
1024.81	3687.98
1024.97	3677.17
1025.13	3653.82
1025.29	3657.18
1025.45	3640.55
1025.61	3663.24
1025.77	3637.03
1025.93	3656.85
1026.09	3625.81
1026.25	3638.34
1026.41	3632.69
1026.57	3617.53
1026.73	3634.90
1026.90	3619.74
1027.06	3593.94
1027.22	3632.52
1027.38	3612.70
1027.54	3629.00
1027.70	3620.07
1027.86	3611.88
1028.02	3618.76
1028.18	3631.62
1028.34	3596.72
1028.50	3603.36
1028.66	3597.30
1028.82	3611.96
1028.98	3589.93
1029.14	3575.02
1029.30	3587.22
1029.46	3585.50
1029.62	3574.36
1029.78	3577.88
1029.94	3585.01
1030.10	3578.62
1030.26	3544.62
1030.42	3578.21
1030.58	3563.47
1030.74	3556.99
1030.90	3533.48
1031.06	3552.82
1031.22	3539.55
1031.38	3549.54
1031.54	3518.98
1031.70	3553.23
1031.86	3541.43
1032.02	3527.91
1032.18	3505.39
1032.34	3530.04
1032.50	3515.79
1032.66	3532.66
1032.82	3518.08
1032.98	3541.68
1033.14	3517.75
1033.30	3539.22
1033.45	3503.83
1033.61	3509.07
1033.77	3499.90
1033.93	3509.97
1034.09	3496.37
1034.25	3519.48
1034.41	3479.58
1034.57	3486.30
1034.73	3484.74
1034.89	3495.15
1035.05	3496.54
1035.21	3500.80
1035.37	3479.66
1035.53	3484.58
1035.69	3482.20
1035.85	3498.18
1036.01	3443.54
1036.16	3474.42
1036.32	3463.69
1036.48	3482.04
1036.64	3461.89
1036.80	3484.82
1036.96	3441.08
1037.12	3471.55
1037.28	3477.94
1037.44	3461.31
1037.60	3445.91
1037.76	3453.28
1037.91	3435.43
1038.07	3459.84
1038.23	3462.54
1038.39	3459.43
1038.55	3445.09
1038.71	3441.90
1038.87	3420.68
1039.03	3445.83
1039.19	3418.55
1039.35	3447.30
1039.50	3438.87
1039.66	3449.35
1039.82	3413.96
1039.98	3448.12
1040.14	3422.32
1040.30	3438.13
1040.46	3402.41
1040.62	3417.98
1040.77	3420.93
1040.93	3431.49
1041.09	3412.00
1041.25	3404.79
1041.41	3419.78
1041.57	3410.44
1041.73	3410.44
1041.88	3410.44

