SpectraSuite Data File
++++++++++++++++++++++++++++++++++++
Date: Tue Sep 20 11:55:51 EDT 2022
User: Laboratoire
Dark Spectrum Present: No
Reference Spectrum Present: No
Number of Sampled Component Spectra: 1
Spectrometers: FLMT00174
Integration Time (usec): 15000 (FLMT00174)
Spectra Averaged: 25 (FLMT00174)
Boxcar Smoothing: 0 (FLMT00174)
Correct for Electrical Dark: No (FLMT00174)
Strobe/Lamp Enabled: No (FLMT00174)
Correct for Detector Non-linearity: No (FLMT00174)
Correct for Stray Light: No (FLMT00174)
Number of Pixels in Processed Spectrum: 3648
>>>>>Begin Processed Spectral Data<<<<<
345.74	3169.76
345.96	3169.76
346.18	3169.76
346.39	3175.99
346.61	3202.61
346.83	3200.48
347.05	3202.61
347.27	3180.50
347.49	3225.22
347.71	3214.57
347.93	3215.56
348.15	3214.25
348.36	3207.04
348.58	3212.61
348.80	3213.26
349.02	3219.08
349.24	3195.90
349.46	3315.01
349.68	3339.58
349.90	3344.66
350.11	3326.80
350.33	3306.16
350.55	3299.03
350.77	3319.84
350.99	3322.71
351.21	3335.81
351.43	3316.48
351.65	3334.34
351.86	3313.86
352.08	3324.75
352.30	3317.71
352.52	3347.04
352.74	3315.25
352.96	3321.64
353.18	3334.75
353.39	3328.69
353.61	3327.70
353.83	3356.62
354.05	3338.84
354.27	3351.46
354.49	3329.42
354.70	3327.21
354.92	3328.85
355.14	3324.10
355.36	3319.92
355.58	3345.32
355.80	3335.24
356.02	3344.33
356.23	3332.05
356.45	3320.99
356.67	3344.91
356.89	3347.12
357.11	3320.09
357.33	3357.93
357.54	3317.87
357.76	3330.00
357.98	3318.86
358.20	3340.32
358.42	3323.28
358.63	3336.14
358.85	3341.30
359.07	3340.16
359.29	3315.58
359.51	3353.75
359.73	3308.21
359.94	3347.77
360.16	3320.41
360.38	3341.38
360.60	3313.12
360.82	3344.91
361.03	3337.21
361.25	3324.43
361.47	3362.03
361.69	3345.23
361.91	3331.55
362.12	3337.62
362.34	3335.32
362.56	3343.51
362.78	3335.81
363.00	3354.57
363.21	3328.52
363.43	3340.56
363.65	3326.88
363.87	3348.67
364.09	3362.03
364.30	3339.01
364.52	3323.61
364.74	3338.43
364.96	3327.62
365.17	3330.57
365.39	3352.85
365.61	3332.21
365.83	3338.43
366.05	3338.68
366.26	3337.62
366.48	3342.94
366.70	3355.31
366.92	3351.46
367.13	3351.54
367.35	3355.39
367.57	3351.95
367.79	3347.12
368.01	3339.91
368.22	3347.20
368.44	3335.90
368.66	3345.73
368.88	3351.46
369.09	3347.86
369.31	3357.69
369.53	3341.63
369.75	3362.68
369.96	3361.21
370.18	3336.22
370.40	3359.98
370.62	3349.00
370.83	3348.59
371.05	3379.97
371.27	3367.93
371.49	3329.26
371.70	3370.38
371.92	3349.25
372.14	3370.87
372.36	3343.10
372.57	3380.79
372.79	3350.23
373.01	3361.45
373.22	3358.26
373.44	3368.91
373.66	3353.75
373.88	3365.55
374.09	3364.73
374.31	3352.12
374.53	3354.82
374.75	3356.46
374.96	3362.27
375.18	3381.36
375.40	3367.11
375.61	3374.48
375.83	3363.58
376.05	3379.56
376.27	3378.98
376.48	3367.76
376.70	3357.52
376.92	3351.62
377.13	3345.15
377.35	3358.59
377.57	3361.95
377.79	3372.43
378.00	3351.54
378.22	3376.85
378.44	3354.74
378.65	3389.72
378.87	3360.23
379.09	3389.14
379.30	3381.36
379.52	3382.34
379.74	3367.19
379.96	3382.75
380.17	3367.19
380.39	3379.56
380.61	3380.21
380.82	3389.96
381.04	3383.33
381.26	3410.03
381.47	3399.71
381.69	3407.82
381.91	3381.61
382.12	3413.64
382.34	3410.93
382.56	3412.49
382.77	3402.41
382.99	3412.41
383.21	3398.48
383.42	3418.31
383.64	3399.05
383.86	3421.91
384.07	3432.40
384.29	3404.87
384.51	3407.00
384.72	3401.68
384.94	3402.50
385.16	3434.44
385.37	3409.70
385.59	3422.89
385.81	3436.49
386.02	3414.37
386.24	3434.28
386.46	3404.46
386.67	3435.75
386.89	3432.56
387.11	3446.49
387.32	3443.45
387.54	3440.67
387.76	3444.36
387.97	3462.95
388.19	3455.99
388.40	3444.77
388.62	3446.16
388.84	3461.39
389.05	3451.32
389.27	3448.78
389.49	3471.96
389.70	3461.97
389.92	3457.87
390.14	3454.35
390.35	3472.95
390.57	3468.19
390.78	3466.56
391.00	3465.25
391.22	3479.01
391.43	3485.07
391.65	3508.01
391.86	3483.43
392.08	3500.88
392.30	3486.22
392.51	3511.69
392.73	3528.40
392.95	3523.08
393.16	3490.48
393.38	3537.17
393.59	3512.68
393.81	3542.99
394.03	3518.41
394.24	3518.82
394.46	3526.77
394.67	3527.99
394.89	3527.18
395.11	3565.43
395.32	3562.32
395.54	3556.50
395.75	3568.87
395.97	3531.84
396.19	3549.38
396.40	3581.82
396.62	3579.69
396.83	3570.43
397.05	3554.95
397.26	3583.37
397.48	3581.65
397.70	3587.71
397.91	3607.46
398.13	3589.27
398.34	3607.13
398.56	3616.63
398.78	3616.63
398.99	3628.92
399.21	3597.05
399.42	3630.23
399.64	3612.29
399.85	3636.86
400.07	3648.42
400.29	3662.75
400.50	3645.22
400.72	3666.85
400.93	3665.45
401.15	3658.66
401.36	3669.80
401.58	3678.73
401.79	3670.45
402.01	3700.84
402.23	3688.56
402.44	3731.73
402.66	3714.36
402.87	3727.55
403.09	3719.68
403.30	3726.16
403.52	3706.50
403.73	3716.98
403.95	3752.62
404.16	3760.73
404.38	3748.85
404.60	3739.59
404.81	3746.80
405.03	3749.59
405.24	3770.06
405.46	3769.33
405.67	3792.10
405.89	3801.36
406.10	3787.76
406.32	3803.65
406.53	3839.04
406.75	3829.78
406.96	3812.50
407.18	3819.05
407.39	3838.96
407.61	3842.64
407.82	3851.74
408.04	3868.53
408.25	3872.71
408.47	3875.66
408.68	3886.96
408.90	3870.66
409.12	3914.49
409.33	3923.50
409.55	3890.81
409.76	3916.45
409.98	3904.90
410.19	3911.87
410.41	3944.80
410.62	3951.43
410.84	3922.19
411.05	3944.80
411.27	3971.75
411.48	3975.60
411.70	3969.13
411.91	3986.00
412.12	4004.52
412.34	3978.47
412.55	4013.28
412.77	4006.89
412.98	4045.07
413.20	4043.18
413.41	4030.98
413.63	4034.25
413.84	4038.27
414.06	4064.48
414.27	4066.61
414.49	4070.71
414.70	4101.43
414.92	4101.10
415.13	4084.14
415.35	4109.04
415.56	4127.72
415.78	4124.28
415.99	4126.25
416.21	4148.20
416.42	4174.01
416.63	4176.05
416.85	4174.66
417.06	4183.59
417.28	4166.80
417.49	4226.27
417.71	4195.96
417.92	4210.21
418.14	4217.50
418.35	4242.74
418.57	4262.56
418.78	4260.18
418.99	4264.28
419.21	4302.21
419.42	4286.07
419.64	4276.57
419.85	4301.72
420.07	4359.63
420.28	4333.09
420.50	4325.97
420.71	4351.52
420.92	4341.53
421.14	4371.43
421.35	4359.22
421.57	4382.90
421.78	4397.48
422.00	4397.97
422.21	4434.75
422.42	4425.01
422.64	4428.36
422.85	4466.95
423.07	4474.81
423.28	4493.16
423.50	4500.86
423.71	4512.49
423.92	4550.91
424.14	4520.11
424.35	4531.75
424.57	4586.96
424.78	4585.48
424.99	4607.60
425.21	4613.66
425.42	4623.08
425.64	4607.19
425.85	4647.50
426.06	4638.89
426.28	4639.96
426.49	4701.64
426.71	4693.53
426.92	4714.34
427.13	4728.84
427.35	4771.52
427.56	4775.62
427.78	4774.55
427.99	4795.61
428.20	4852.54
428.42	4838.12
428.63	4871.95
428.84	4826.24
429.06	4878.34
429.27	4893.17
429.49	4887.93
429.70	4949.04
429.91	4944.12
430.13	4963.87
430.34	4964.69
430.56	4984.51
430.77	5039.72
430.98	4996.72
431.20	5041.69
431.41	5090.19
431.62	5071.75
431.84	5053.73
432.05	5083.55
432.26	5086.83
432.48	5091.91
432.69	5147.77
432.91	5129.34
433.12	5194.14
433.33	5201.84
433.55	5260.90
433.76	5259.59
433.97	5220.76
434.19	5253.04
434.40	5322.51
434.61	5307.35
434.83	5341.18
435.04	5316.94
435.25	5371.00
435.47	5395.17
435.68	5353.47
435.89	5438.91
436.11	5440.55
436.32	5477.25
436.53	5457.18
436.75	5480.61
436.96	5515.26
437.17	5461.52
437.39	5506.09
437.60	5548.44
437.81	5563.43
438.03	5585.71
438.24	5599.97
438.45	5690.16
438.67	5632.98
438.88	5683.03
439.09	5723.50
439.31	5704.08
439.52	5731.53
439.73	5736.77
439.94	5721.45
440.16	5773.39
440.37	5736.61
440.58	5847.77
440.80	5829.99
441.01	5784.53
441.22	5939.19
441.44	5952.46
441.65	5911.26
441.86	5942.14
442.08	5969.01
442.29	5971.63
442.50	6001.04
442.71	5989.24
442.93	6072.56
443.14	6064.69
443.35	6099.59
443.57	6055.11
443.78	6133.34
443.99	6180.77
444.20	6104.42
444.42	6177.33
444.63	6218.12
444.84	6278.83
445.06	6334.61
445.27	6236.80
445.48	6261.13
445.69	6313.40
445.91	6311.51
446.12	6273.58
446.33	6349.28
446.54	6429.80
446.76	6359.68
446.97	6422.84
447.18	6415.63
447.39	6456.26
447.61	6524.01
447.82	6525.24
448.03	6520.98
448.25	6566.20
448.46	6633.94
448.67	6663.84
448.88	6574.14
449.10	6713.00
449.31	6722.09
449.52	6676.46
449.73	6727.17
449.95	6837.43
450.16	6763.54
450.37	6867.33
450.58	6995.21
450.79	6810.23
451.01	6947.04
451.22	6876.75
451.43	6930.41
451.64	7020.60
451.86	7007.74
452.07	7037.89
452.28	7096.38
452.49	7231.95
452.71	7116.61
452.92	7122.92
453.13	7184.52
453.34	7202.30
453.55	7314.12
453.77	7332.14
453.98	7310.02
454.19	7296.42
454.40	7370.97
454.62	7449.20
454.83	7350.49
455.04	7542.01
455.25	7400.05
455.46	7662.52
455.68	7548.57
455.89	7530.14
456.10	7601.81
456.31	7636.79
456.52	7692.74
456.74	7687.09
456.95	7838.72
457.16	7785.48
457.37	7873.62
457.58	7862.23
457.80	7878.86
458.01	7831.43
458.22	8184.67
458.43	7988.22
458.64	8057.45
458.86	7953.49
459.07	8074.40
459.28	8071.04
459.49	8200.72
459.70	8352.60
459.91	8309.67
460.13	8277.15
460.34	8358.83
460.55	8303.78
460.76	8454.42
460.97	8471.96
461.19	8473.27
461.40	8694.12
461.61	8600.40
461.82	8632.60
462.03	8705.10
462.24	8723.12
462.46	8718.12
462.67	8721.48
462.88	8844.28
463.09	8856.81
463.30	8985.75
463.51	8901.62
463.72	9127.88
463.94	9102.98
464.15	9124.77
464.36	9071.03
464.57	9304.58
464.78	9278.36
464.99	9342.01
465.20	9245.19
465.42	9449.33
465.63	9422.70
465.84	9482.67
466.05	9604.32
466.26	9644.79
466.47	9698.93
466.68	9679.85
466.90	9836.15
467.11	9804.20
467.32	9914.95
467.53	10040.04
467.74	9899.47
467.95	9985.73
468.16	10152.52
468.37	10254.83
468.59	10260.08
468.80	10412.69
469.01	10268.19
469.22	10446.69
469.43	10685.73
469.64	10533.77
469.85	10678.68
470.06	10726.03
470.28	10842.52
470.49	10685.07
470.70	10870.45
470.91	11119.41
471.12	10980.55
471.33	11241.87
471.54	11179.62
471.75	11213.45
471.96	11486.97
472.17	11439.71
472.39	11707.25
472.60	11488.12
472.81	11818.99
473.02	11713.73
473.23	11944.33
473.44	12045.99
473.65	12008.22
473.86	12109.56
474.07	12196.47
474.28	12264.22
474.49	12553.72
474.71	12499.82
474.92	12691.10
475.13	12632.04
475.34	12709.61
475.55	12725.75
475.76	12881.15
475.97	13148.29
476.18	13139.19
476.39	13303.52
476.60	13394.70
476.81	13489.31
477.02	13671.26
477.23	13672.73
477.44	13687.48
477.65	13891.21
477.87	14077.82
478.08	14158.26
478.29	14164.33
478.50	14521.00
478.71	14402.71
478.92	14568.84
479.13	14633.47
479.34	14734.81
479.55	14873.91
479.76	14900.20
479.97	14936.66
480.18	15359.68
480.39	15129.66
480.60	15556.12
480.81	15573.66
481.02	15679.41
481.23	15704.32
481.44	15932.87
481.65	16089.91
481.86	16315.10
482.07	16031.09
482.28	16667.76
482.49	16493.77
482.71	16576.01
482.92	16783.02
483.13	16992.57
483.34	16905.57
483.55	17097.59
483.76	17131.59
483.97	17388.57
484.18	17406.75
484.39	17594.84
484.60	17528.32
484.81	17906.29
485.02	17858.21
485.23	18129.44
485.44	18187.76
485.65	18473.58
485.86	18394.28
486.07	18681.16
486.28	18662.48
486.49	18851.96
486.70	19029.81
486.91	19275.32
487.12	19122.87
487.33	19165.06
487.54	19564.57
487.75	19638.46
487.96	19709.24
488.17	19662.30
488.38	19955.82
488.59	20028.64
488.80	20187.57
489.01	20278.09
489.22	20571.76
489.43	20561.28
489.64	20434.39
489.85	20967.43
490.06	20669.41
490.26	20999.71
490.47	20916.56
490.68	21271.10
490.89	21518.58
491.10	21316.98
491.31	21679.63
491.52	21926.29
491.73	21800.14
491.94	21879.11
492.15	22154.52
492.36	22250.93
492.57	22244.79
492.78	22236.60
492.99	22462.29
493.20	22677.49
493.41	22669.54
493.62	22799.46
493.83	22812.08
494.04	23013.27
494.25	23279.51
494.46	23347.34
494.67	23183.83
494.88	23431.79
495.08	23584.49
495.29	23687.54
495.50	23920.93
495.71	23817.06
495.92	24159.07
496.13	24225.09
496.34	24112.46
496.55	24335.03
496.76	24607.74
496.97	24325.69
497.18	24691.79
497.39	24574.81
497.60	25029.13
497.81	24726.19
498.02	25035.27
498.22	24754.37
498.43	25253.01
498.64	25324.53
498.85	25310.76
499.06	25424.30
499.27	25828.00
499.48	25317.89
499.69	25706.19
499.90	25830.87
500.11	26052.05
500.32	26296.66
500.52	26049.18
500.73	26590.58
500.94	26506.12
501.15	26566.74
501.36	26754.42
501.57	26602.70
501.78	26769.49
501.99	27062.19
502.20	26990.51
502.41	27170.65
502.61	27026.88
502.82	27455.07
503.03	27208.41
503.24	27712.54
503.45	27442.62
503.66	27823.79
503.87	27771.44
504.08	28061.84
504.28	27930.77
504.49	28109.35
504.70	28132.37
504.91	28345.85
505.12	28092.48
505.33	28608.65
505.54	28691.30
505.75	28700.73
505.95	28987.11
506.16	28856.29
506.37	28685.24
506.58	29241.64
506.79	28857.35
507.00	29336.99
507.21	29087.46
507.41	29163.98
507.62	29293.24
507.83	29758.79
508.04	29390.81
508.25	29767.47
508.46	29639.27
508.67	30030.51
508.87	29851.52
509.08	30272.34
509.29	30176.33
509.50	30337.22
509.71	30451.17
509.92	30677.59
510.12	30414.55
510.33	30701.59
510.54	30585.84
510.75	30837.17
510.96	31084.32
511.17	31217.52
511.37	31141.66
511.58	31363.41
511.79	31186.63
512.00	31221.12
512.21	31690.10
512.42	31636.78
512.62	31775.55
512.83	32042.44
513.04	31944.46
513.25	32234.95
513.46	31624.08
513.66	32475.54
513.87	32214.06
514.08	32617.67
514.29	32386.82
514.50	32402.88
514.71	32710.16
514.91	32576.71
515.12	32621.52
515.33	32934.53
515.54	32846.96
515.75	33290.39
515.95	33019.40
516.16	33110.33
516.37	33554.82
516.58	33607.17
516.78	33492.81
516.99	33787.96
517.20	33791.32
517.41	33800.41
517.62	33895.69
517.82	33859.64
518.03	34339.60
518.24	34617.96
518.45	34205.09
518.66	34640.90
518.86	34376.79
519.07	34875.19
519.28	34356.15
519.49	34980.45
519.69	34987.42
519.90	35126.02
520.11	35197.29
520.32	35100.46
520.52	35555.03
520.73	35246.28
520.94	35694.95
521.15	35667.83
521.36	35352.28
521.56	36081.60
521.77	35531.27
521.98	36066.12
522.19	35761.06
522.39	36064.57
522.60	36004.11
522.81	36202.93
523.02	36046.63
523.22	36462.20
523.43	36638.00
523.64	36583.77
523.84	36649.79
524.05	37042.59
524.26	36987.95
524.47	36791.51
524.67	37035.22
524.88	37216.34
525.09	37521.82
525.30	37322.67
525.50	37375.68
525.71	37485.77
525.92	37570.40
526.13	37911.51
526.33	37639.45
526.54	37530.42
526.75	37807.71
526.95	38256.88
527.16	37636.01
527.37	38274.41
527.58	38457.66
527.78	38447.42
527.99	38764.03
528.20	38901.66
528.40	38691.70
528.61	38567.10
528.82	38963.18
529.03	38995.78
529.23	39001.52
529.44	39187.64
529.65	39177.40
529.85	39319.28
530.06	39323.87
530.27	39360.16
530.47	39157.98
530.68	39930.89
530.89	39246.13
531.09	39947.51
531.30	39896.64
531.51	39532.76
531.72	40097.18
531.92	40047.54
532.13	40328.19
532.34	40164.19
532.54	40196.63
532.75	40516.36
532.96	40418.06
533.16	40647.43
533.37	40917.51
533.58	40606.63
533.78	41005.33
533.99	41093.72
534.20	40683.06
534.40	41030.07
534.61	41195.06
534.82	41269.27
535.02	41423.77
535.23	41448.92
535.44	41668.96
535.64	41447.61
535.85	41745.96
536.06	41689.52
536.26	41659.53
536.47	41695.82
536.68	42351.50
536.88	41851.80
537.09	42346.91
537.29	41895.95
537.50	42679.26
537.71	42272.78
537.91	42535.90
538.12	42759.46
538.33	42401.23
538.53	42655.50
538.74	42741.35
538.95	42838.92
539.15	42702.20
539.36	43013.41
539.56	43323.88
539.77	43003.49
539.98	43033.64
540.18	43270.88
540.39	43146.44
540.60	43408.99
540.80	43670.97
541.01	43653.52
541.21	43613.46
541.42	43817.77
541.63	43736.42
541.83	43979.15
542.04	44016.01
542.25	44011.91
542.45	44246.28
542.66	44216.22
542.86	44359.33
543.07	43509.34
543.28	44528.49
543.48	44369.24
543.69	44564.13
543.89	44461.81
544.10	44947.67
544.31	44696.67
544.51	44634.50
544.72	44787.19
544.92	44772.28
545.13	45223.57
545.33	45157.71
545.54	44965.20
545.75	45288.29
545.95	45051.38
546.16	45117.90
546.36	45738.51
546.57	44813.49
546.78	44163.46
546.98	44822.42
547.19	44111.61
547.39	45187.61
547.60	45495.54
547.80	46111.25
548.01	46168.18
548.22	45735.24
548.42	45865.65
548.63	46093.80
548.83	46006.06
549.04	46322.43
549.24	45998.44
549.45	46291.06
549.65	46753.08
549.86	46089.21
550.07	46367.41
550.27	46683.69
550.48	46825.09
550.68	46638.97
550.89	46595.71
551.09	46869.49
551.30	46673.13
551.50	46987.20
551.71	46769.38
551.91	46779.37
552.12	47076.49
552.33	47396.88
552.53	46982.21
552.74	47507.47
552.94	47597.42
553.15	47281.37
553.35	47580.54
553.56	47254.83
553.76	47733.73
553.97	47382.87
554.17	47655.17
554.38	48301.92
554.58	47636.74
554.79	48174.86
554.99	47683.35
555.20	47790.99
555.40	48376.30
555.61	47960.97
555.81	47782.80
556.02	48661.13
556.22	48438.56
556.43	48225.81
556.63	48279.47
556.84	48177.56
557.04	48720.85
557.25	48098.84
557.45	48490.82
557.66	48530.80
557.86	48513.76
558.07	49127.33
558.27	48676.12
558.48	48821.53
558.68	48848.72
558.89	49086.70
559.09	49261.59
559.30	48911.88
559.50	49277.49
559.71	48786.30
559.91	49571.58
560.12	49175.91
560.32	49218.59
560.53	49486.38
560.73	49216.13
560.94	49679.95
561.14	49315.82
561.35	49924.89
561.55	49569.94
561.76	49715.92
561.96	49215.64
562.17	49790.38
562.37	50039.00
562.57	49767.77
562.78	49748.60
562.98	50135.83
563.19	50107.16
563.39	50265.67
563.60	50340.22
563.80	49804.22
564.01	50515.61
564.21	50112.98
564.42	50059.81
564.62	50301.23
564.82	50598.34
565.03	50246.34
565.23	50370.45
565.44	50653.15
565.64	50402.48
565.85	50758.17
566.05	50564.59
566.25	50882.85
566.46	50516.84
566.66	50788.72
566.87	50799.95
567.07	50729.50
567.28	50836.48
567.48	51138.11
567.68	50450.56
567.89	51410.41
568.09	50865.07
568.30	50960.02
568.50	51300.55
568.71	51157.60
568.91	51492.00
569.11	51051.85
569.32	51188.49
569.52	51399.67
569.73	50772.83
569.93	51526.98
570.13	51300.80
570.34	51276.47
570.54	51710.31
570.75	51553.76
570.95	51710.39
571.15	51480.86
571.36	52110.32
571.56	51547.37
571.77	51568.43
571.97	51120.25
572.17	51922.32
572.38	51625.36
572.58	51980.97
572.79	51798.45
572.99	52032.58
573.19	51966.88
573.40	51987.28
573.60	52072.14
573.81	51967.21
574.01	52246.88
574.21	52102.95
574.42	52116.71
574.62	51819.75
574.82	52293.49
575.03	52008.41
575.23	52502.55
575.43	52121.54
575.64	52040.61
575.84	52508.28
576.05	52116.54
576.25	52444.30
576.45	52256.95
576.66	52826.86
576.86	52317.16
577.06	52798.03
577.27	52659.67
577.47	52703.49
577.67	52571.19
577.88	52064.69
578.08	52750.51
578.28	52949.17
578.49	52643.36
578.69	52923.94
578.89	52557.68
579.10	52748.47
579.30	53321.57
579.50	52821.21
579.71	52527.53
579.91	53264.80
580.11	52889.28
580.32	52977.84
580.52	52955.31
580.72	53471.64
580.93	52830.55
581.13	52897.15
581.33	53367.94
581.54	52929.10
581.74	53032.31
581.94	53169.36
582.15	53553.48
582.35	53318.05
582.55	53376.95
582.76	53123.65
582.96	53589.44
583.16	53137.01
583.37	53462.55
583.57	53130.13
583.77	53637.94
583.97	52749.37
584.18	53887.55
584.38	53632.62
584.58	53368.84
584.79	53867.07
584.99	53797.19
585.19	53647.69
585.40	53617.30
585.60	54043.44
585.80	53431.34
586.00	53906.22
586.21	53744.43
586.41	53881.40
586.61	54086.85
586.82	53865.35
587.02	53756.56
587.22	54131.17
587.42	53490.08
587.63	54211.62
587.83	53519.57
588.03	54003.87
588.23	53660.63
588.44	54056.54
588.64	53775.40
588.84	54107.25
589.05	54236.60
589.25	54255.12
589.45	54196.38
589.65	54017.72
589.86	54332.69
590.06	54312.95
590.26	53983.88
590.46	54378.40
590.67	53683.00
590.87	54384.88
591.07	54618.75
591.27	54067.03
591.48	54609.82
591.68	53912.61
591.88	54902.03
592.08	54049.58
592.29	54529.54
592.49	54369.97
592.69	54564.93
592.89	54239.31
593.10	54352.52
593.30	54265.93
593.50	54754.16
593.70	53785.72
593.90	54673.07
594.11	54426.98
594.31	54529.30
594.51	54720.99
594.71	54801.76
594.92	54922.92
595.12	54704.36
595.32	54724.26
595.52	54975.51
595.72	54242.83
595.93	55046.78
596.13	54689.12
596.33	54373.65
596.53	54999.68
596.73	54881.88
596.94	54799.96
597.14	55066.52
597.34	54848.94
597.54	55265.09
597.74	54724.35
597.95	54890.72
598.15	54915.30
598.35	55105.76
598.55	55284.34
598.75	54857.14
598.96	55423.20
599.16	55105.35
599.36	55126.65
599.56	55091.42
599.76	54911.45
599.97	55339.56
600.17	55170.80
600.37	55267.39
600.57	54555.92
600.77	55413.86
600.97	55149.42
601.18	55653.71
601.38	55180.31
601.58	55523.55
601.78	55280.41
601.98	55136.23
602.18	55423.85
602.39	55795.52
602.59	55534.52
602.79	55349.71
602.99	55293.60
603.19	55351.52
603.39	55158.93
603.60	55232.82
603.80	55273.69
604.00	55209.47
604.20	55415.33
604.40	55474.64
604.60	55440.89
604.80	55351.11
605.01	55593.67
605.21	55471.20
605.41	55443.59
605.61	55107.97
605.81	55575.56
606.01	55988.76
606.21	55361.76
606.42	55730.31
606.62	55384.86
606.82	55824.35
607.02	55484.55
607.22	55759.23
607.42	56022.84
607.62	55357.09
607.82	55799.69
608.03	55744.23
608.23	55593.83
608.43	55389.44
608.63	55887.59
608.83	55783.97
609.03	55689.43
609.23	55766.68
609.43	55860.15
609.63	55502.08
609.84	55382.56
610.04	56037.42
610.24	55871.21
610.44	55949.77
610.64	55613.49
610.84	55923.88
611.04	56323.07
611.24	55955.83
611.44	55326.94
611.64	55942.15
611.85	55956.98
612.05	55849.91
612.25	56090.42
612.45	55805.92
612.65	56140.07
612.85	56178.90
613.05	55847.78
613.25	56286.95
613.45	56130.73
613.65	56073.55
613.85	55738.01
614.05	56081.17
614.25	56134.25
614.46	55848.44
614.66	55697.21
614.86	55403.13
615.06	55751.36
615.26	56059.21
615.46	55319.65
615.66	56026.61
615.86	56061.18
616.06	55675.26
616.26	55773.23
616.46	56206.26
616.66	55776.51
616.86	56258.52
617.06	55787.16
617.26	56318.81
617.46	55939.45
617.66	55758.24
617.86	55517.48
618.07	55761.77
618.27	55713.19
618.47	55714.99
618.67	55822.63
618.87	56014.08
619.07	55718.10
619.27	55652.24
619.47	55683.86
619.67	56157.19
619.87	55549.51
620.07	56090.59
620.27	56033.90
620.47	55718.27
620.67	55902.91
620.87	55826.40
621.07	55983.93
621.27	55867.60
621.47	55482.42
621.67	55836.64
621.87	55438.92
622.07	56002.36
622.27	55816.81
622.47	55462.68
622.67	55709.83
622.87	55235.27
623.07	55655.03
623.27	56049.71
623.47	55154.42
623.67	55584.49
623.87	55901.44
624.07	55987.04
624.27	55460.80
624.47	55794.45
624.67	55518.06
624.87	55759.47
625.07	55299.17
625.27	55777.74
625.47	55437.29
625.67	55274.59
625.87	55547.06
626.07	55476.85
626.27	55805.92
626.47	55638.81
626.67	55569.75
626.87	55261.57
627.07	55808.21
627.27	55583.76
627.47	55806.66
627.67	55539.36
627.87	55506.10
628.07	55767.75
628.27	55453.26
628.47	55168.02
628.67	55677.88
628.86	55798.79
629.06	55488.89
629.26	55394.61
629.46	55740.79
629.66	55558.61
629.86	54969.04
630.06	55529.77
630.26	55326.78
630.46	55647.00
630.66	55198.49
630.86	55332.18
631.06	55466.69
631.26	55117.80
631.46	55756.36
631.66	55540.01
631.86	55167.04
632.06	55695.74
632.26	55296.14
632.45	55344.23
632.65	55453.51
632.85	55508.23
633.05	55389.77
633.25	55591.21
633.45	55065.87
633.65	55245.51
633.85	55841.72
634.05	54876.14
634.25	55235.11
634.45	55301.55
634.65	55524.86
634.84	55103.30
635.04	55357.58
635.24	54878.85
635.44	55360.77
635.64	54965.60
635.84	55320.88
636.04	55109.12
636.24	55097.32
636.44	55205.37
636.64	54551.58
636.84	55486.93
637.03	54698.21
637.23	55121.57
637.43	55225.53
637.63	54979.52
637.83	55301.55
638.03	55185.96
638.23	54832.32
638.43	55271.73
638.62	55368.97
638.82	54327.53
639.02	55169.57
639.22	54844.19
639.42	55157.70
639.62	54719.10
639.82	54855.83
640.02	54853.37
640.21	55086.10
640.41	54447.30
640.61	55046.78
640.81	54772.19
641.01	54716.97
641.21	54603.60
641.41	55210.04
641.61	54585.74
641.80	54694.12
642.00	55003.03
642.20	54930.86
642.40	54218.17
642.60	54708.86
642.80	54826.09
642.99	54466.14
643.19	54767.27
643.39	54246.84
643.59	54631.12
643.79	54465.97
643.99	54808.31
644.19	54645.70
644.38	54160.01
644.58	54435.83
644.78	54219.81
644.98	54271.58
645.18	54472.69
645.38	54673.07
645.57	54284.12
645.77	54450.98
645.97	54243.32
646.17	54643.49
646.37	54455.41
646.56	54214.57
646.76	54237.26
646.96	54269.78
647.16	54059.41
647.36	54248.97
647.55	53991.58
647.75	54149.85
647.95	53741.98
648.15	54070.47
648.35	53895.66
648.55	54090.79
648.74	53847.57
648.94	53919.49
649.14	54340.39
649.34	53821.11
649.54	53709.86
649.73	53910.16
649.93	53657.85
650.13	53756.80
650.33	53530.46
650.52	53997.32
650.72	54171.72
650.92	53695.53
651.12	53441.25
651.32	53824.22
651.51	53912.70
651.71	53778.92
651.91	53473.28
652.11	53399.88
652.30	53231.05
652.50	53720.92
652.70	53751.73
652.90	53314.20
653.10	53834.30
653.29	53527.43
653.49	53878.21
653.69	53369.98
653.89	53509.74
654.08	53516.54
654.28	53890.82
654.48	53651.46
654.68	53684.22
654.87	53547.34
655.07	53174.36
655.27	53640.97
655.47	53229.33
655.66	53221.14
655.86	53146.51
656.06	53670.05
656.26	52838.74
656.45	53258.82
656.65	53116.45
656.85	53233.18
657.04	52936.96
657.24	52995.45
657.44	52833.66
657.64	53461.32
657.83	52439.22
658.03	53135.29
658.23	52929.51
658.43	52812.77
658.62	52721.43
658.82	52661.80
659.02	52593.07
659.21	52693.50
659.41	52305.61
659.61	53012.57
659.81	52669.82
660.00	52402.85
660.20	52673.92
660.40	52427.84
660.59	52601.34
660.79	52267.03
660.99	52726.35
661.19	52700.05
661.38	52778.20
661.58	52001.12
661.78	52399.41
661.97	52140.71
662.17	52752.56
662.37	52039.05
662.56	52047.41
662.76	51953.04
662.96	52206.33
663.15	52387.70
663.35	52219.11
663.55	51865.63
663.74	51779.20
663.94	52250.97
664.14	51665.42
664.33	52027.66
664.53	51766.75
664.73	52227.14
664.93	51594.80
665.12	52153.49
665.32	51865.71
665.52	51961.96
665.71	51665.34
665.91	51871.53
666.10	51539.84
666.30	51916.83
666.50	51492.90
666.69	51514.20
666.89	51884.47
667.09	52047.41
667.28	51594.39
667.48	51437.60
667.68	51469.55
667.87	51488.47
668.07	51117.30
668.27	51614.63
668.46	51521.49
668.66	51125.57
668.86	51552.86
669.05	51151.62
669.25	51434.49
669.44	51018.42
669.64	50940.19
669.84	50925.77
670.03	51462.92
670.23	50991.55
670.43	51108.53
670.62	50923.64
670.82	50913.98
671.01	51179.97
671.21	50770.70
671.41	50839.68
671.60	51114.76
671.80	51366.74
672.00	50897.76
672.19	51246.81
672.39	51001.63
672.58	50814.94
672.78	50656.02
672.98	51158.83
673.17	50812.73
673.37	50120.92
673.56	50480.38
673.76	50580.57
673.96	50740.88
674.15	50563.04
674.35	50636.44
674.54	50417.14
674.74	50414.36
674.94	50374.87
675.13	50419.76
675.33	50031.71
675.52	50657.65
675.72	50556.73
675.91	50419.02
676.11	50858.93
676.31	50297.05
676.50	50472.76
676.70	50245.44
676.89	50394.86
677.09	50474.07
677.28	50577.37
677.48	49818.64
677.68	50315.64
677.87	49945.70
678.07	49950.29
678.26	49883.11
678.46	50141.24
678.65	49912.77
678.85	50309.25
679.04	49659.23
679.24	49929.40
679.44	49607.54
679.63	49901.38
679.83	49606.23
680.02	49785.96
680.22	49501.86
680.41	49829.95
680.61	49609.83
680.80	49508.25
681.00	49594.51
681.19	49660.62
681.39	49391.60
681.59	49249.88
681.78	49248.08
681.98	49553.31
682.17	49020.59
682.37	49433.95
682.56	48935.31
682.76	49361.86
682.95	49118.15
683.15	49112.09
683.34	48993.80
683.54	49070.23
683.73	49108.32
683.93	48513.92
684.12	48904.43
684.32	49190.41
684.51	48565.45
684.71	49029.76
684.90	48814.07
685.10	48802.44
685.29	48631.07
685.49	48767.87
685.68	48902.87
685.88	48640.49
686.07	48384.33
686.27	48701.19
686.46	48520.72
686.66	48294.46
686.85	48687.10
687.05	48287.50
687.24	48086.39
687.44	48500.49
687.63	48394.89
687.83	47857.51
688.02	48389.73
688.22	48417.42
688.41	48082.21
688.61	48022.08
688.80	48178.30
689.00	47743.56
689.19	47564.48
689.39	48178.14
689.58	48020.53
689.77	48002.09
689.97	48116.94
690.16	47854.39
690.36	47463.07
690.55	47315.61
690.75	48020.12
690.94	47517.22
691.14	47697.68
691.33	47292.92
691.53	47659.02
691.72	47396.39
691.91	47462.17
692.11	47429.15
692.30	47470.44
692.50	47590.62
692.69	47098.78
692.89	47254.01
693.08	47069.12
693.28	47027.75
693.47	47159.48
693.66	46960.58
693.86	46942.64
694.05	46809.36
694.25	46911.18
694.44	47108.52
694.64	46919.78
694.83	46883.41
695.02	46831.39
695.22	47142.03
695.41	46666.82
695.61	46588.42
695.80	46465.54
695.99	46438.43
696.19	46630.28
696.38	46583.10
696.58	46188.25
696.77	46808.05
696.96	46644.29
697.16	46488.40
697.35	46469.07
697.55	46364.13
697.74	46108.79
697.93	46600.38
698.13	45993.20
698.32	46338.16
698.52	46038.58
698.71	45640.95
698.90	46355.53
699.10	45821.99
699.29	45819.20
699.49	46209.30
699.68	45793.40
699.87	45746.05
700.07	46070.12
700.26	45739.99
700.45	45786.60
700.65	45546.58
700.84	46038.99
701.04	45501.11
701.23	45779.56
701.42	45596.30
701.62	45413.46
701.81	45446.88
702.00	45367.91
702.20	45054.90
702.39	45265.19
702.58	45531.26
702.78	45236.03
702.97	45141.33
703.17	45361.36
703.36	45247.82
703.55	45052.04
703.75	45040.16
703.94	45122.08
704.13	44796.53
704.33	44711.17
704.52	45038.76
704.71	44870.75
704.91	44898.11
705.10	44573.14
705.29	44687.74
705.49	44738.12
705.68	44800.22
705.87	44666.85
706.07	44253.74
706.26	44621.14
706.45	44174.28
706.65	44049.84
706.84	44508.10
707.03	44791.12
707.23	44019.04
707.42	43883.71
707.61	44254.47
707.80	43873.06
708.00	43868.06
708.19	43705.70
708.38	44104.97
708.58	43421.52
708.77	44066.47
708.96	43559.48
709.16	43450.52
709.35	44205.32
709.54	43631.56
709.74	43450.11
709.93	43080.09
710.12	43789.75
710.31	43880.19
710.51	43431.68
710.70	43477.97
710.89	43436.68
711.09	43089.43
711.28	43003.90
711.47	43402.19
711.66	43212.30
711.86	43163.07
712.05	43130.22
712.24	43474.53
712.43	42902.73
712.63	42680.24
712.82	43195.18
713.01	42959.67
713.21	42527.71
713.40	42567.77
713.59	42969.09
713.78	42310.05
713.98	42760.85
714.17	42486.18
714.36	42500.35
714.55	41972.55
714.75	42131.63
714.94	42329.22
715.13	42520.25
715.32	41869.66
715.52	42156.13
715.71	41813.21
715.90	41882.93
716.09	41828.94
716.29	42111.15
716.48	42066.51
716.67	41425.33
716.86	41785.69
717.06	41669.28
717.25	41862.37
717.44	41835.25
717.63	41804.20
717.82	41333.33
718.02	41598.91
718.21	41729.98
718.40	41714.75
718.59	41580.73
718.79	41381.01
718.98	41307.69
719.17	41537.64
719.36	41449.90
719.55	41271.81
719.75	41064.48
719.94	41042.03
720.13	41418.12
720.32	41227.41
720.51	40831.83
720.71	40934.72
720.90	40430.92
721.09	40585.42
721.28	40519.88
721.47	40879.67
721.67	40731.72
721.86	40683.55
722.05	40615.97
722.24	40188.27
722.43	40674.46
722.63	40327.45
722.82	40380.37
723.01	40491.95
723.20	40239.55
723.39	40323.03
723.58	40543.97
723.78	39995.19
723.97	40407.73
724.16	40065.56
724.35	40142.65
724.54	39831.11
724.73	40073.51
724.93	39692.67
725.12	39884.03
725.31	39222.37
725.50	39523.01
725.69	39676.04
725.88	39373.26
726.08	38969.73
726.27	39478.04
726.46	38803.11
726.65	39679.07
726.84	38992.51
727.03	39190.18
727.23	39538.58
727.42	39076.31
727.61	39087.86
727.80	38831.37
727.99	39022.08
728.18	39096.21
728.37	38897.64
728.56	38778.37
728.76	38664.26
728.95	38869.71
729.14	38806.14
729.33	38737.90
729.52	38710.21
729.71	38651.64
729.90	38542.03
730.09	38189.21
730.29	38427.43
730.48	37825.74
730.67	38270.31
730.86	37825.41
731.05	38221.08
731.24	37924.37
731.43	38088.37
731.62	37820.49
731.81	37747.59
732.01	38216.65
732.20	37859.41
732.39	38244.59
732.58	38037.42
732.77	37452.02
732.96	37947.14
733.15	38056.42
733.34	37628.64
733.53	37755.78
733.72	37808.86
733.92	37646.58
734.11	37420.57
734.30	37430.64
734.49	37563.76
734.68	37331.36
734.87	37224.21
735.06	37130.41
735.25	37318.09
735.44	36921.35
735.63	37102.64
735.82	37160.97
736.01	36984.51
736.20	36865.73
736.40	37182.51
736.59	37019.49
736.78	37221.91
736.97	36777.50
737.16	36842.06
737.35	36978.45
737.54	36994.34
737.73	36831.00
737.92	36892.11
738.11	36989.51
738.30	36710.41
738.49	36675.11
738.68	36615.47
738.87	36765.71
739.06	36478.58
739.25	36612.11
739.44	36594.74
739.63	36339.24
739.82	36130.35
740.01	36320.81
740.20	36065.63
740.39	36077.67
740.59	36003.37
740.78	36115.27
740.97	35778.51
741.16	35708.38
741.35	35861.74
741.54	35679.71
741.73	35775.31
741.92	35501.05
742.11	35533.40
742.30	35629.50
742.49	35245.87
742.68	35635.56
742.87	35470.65
743.06	35140.28
743.25	35424.04
743.44	35208.27
743.63	35572.64
743.82	35199.09
744.01	35227.27
744.20	34964.23
744.39	35325.17
744.58	35158.30
744.77	34914.34
744.96	34653.43
745.15	35088.91
745.34	34780.00
745.53	34909.10
745.72	34622.30
745.91	34748.05
746.10	34463.46
746.29	34828.08
746.48	34757.14
746.67	34668.92
746.86	34650.73
747.04	34634.51
747.23	34476.73
747.42	34674.57
747.61	34376.79
747.80	34822.51
747.99	34175.52
748.18	34495.33
748.37	34317.81
748.56	33963.60
748.75	34122.93
748.94	34080.08
749.13	34054.94
749.32	33808.61
749.51	33863.41
749.70	33950.65
749.89	33751.67
750.08	33836.54
750.27	33436.94
750.46	33705.47
750.65	33948.03
750.84	33495.27
751.02	33687.20
751.21	33509.60
751.40	33585.38
751.59	33656.24
751.78	33588.00
751.97	33698.18
752.16	33399.26
752.35	33762.89
752.54	33278.10
752.73	33567.60
752.92	33155.96
753.11	33246.40
753.30	33309.56
753.49	33458.65
753.67	33279.90
753.86	32981.88
754.05	33210.76
754.24	32959.35
754.43	32949.77
754.62	33015.55
754.81	32687.30
755.00	32765.53
755.19	32739.89
755.38	32341.03
755.56	32638.56
755.75	32919.05
755.94	32424.67
756.13	32550.17
756.32	32539.19
756.51	32380.11
756.70	32489.47
756.89	32376.01
757.08	32258.21
757.26	32353.24
757.45	32242.24
757.64	31976.74
757.83	32394.52
758.02	32032.69
758.21	32004.51
758.40	32156.47
758.59	31979.44
758.77	31891.38
758.96	31925.29
759.15	31961.17
759.34	31589.10
759.53	31792.42
759.72	31812.49
759.91	31497.84
760.09	31693.95
760.28	31799.30
760.47	31487.19
760.66	31833.46
760.85	31363.00
761.04	31681.91
761.23	31597.37
761.41	31554.53
761.60	31689.53
761.79	31462.04
761.98	31218.09
762.17	31519.39
762.36	31149.85
762.54	31398.64
762.73	31181.55
762.92	31043.52
763.11	31414.69
763.30	31503.08
763.49	31337.85
763.67	31230.05
763.86	31268.14
764.05	31382.09
764.24	31236.11
764.43	31409.53
764.61	30910.89
764.80	30899.51
764.99	31251.02
765.18	30797.27
765.37	31014.44
765.55	31090.95
765.74	30833.81
765.93	30711.01
766.12	30916.05
766.31	30850.19
766.49	30761.39
766.68	30861.58
766.87	30709.37
767.06	30515.55
767.25	30597.47
767.43	30578.88
767.62	30430.60
767.81	30600.09
768.00	30418.56
768.19	30271.93
768.37	30389.23
768.56	30256.36
768.75	30295.85
768.94	30334.10
769.12	29995.78
769.31	30014.13
769.50	30038.05
769.69	30150.03
769.88	29743.55
770.06	30295.52
770.25	29883.88
770.44	29926.07
770.63	30173.71
770.81	30032.15
771.00	29905.01
771.19	30012.00
771.38	29928.85
771.56	30226.63
771.75	29557.35
771.94	29898.54
772.13	29882.90
772.31	29643.36
772.50	29970.79
772.69	29748.47
772.88	30035.51
773.06	29597.33
773.25	29709.06
773.44	29713.81
773.62	29638.70
773.81	29708.24
774.00	29499.68
774.19	29571.28
774.37	29418.58
774.56	29659.34
774.75	29221.32
774.94	29554.65
775.12	29183.64
775.31	29335.10
775.50	29337.15
775.68	29172.74
775.87	29076.24
776.06	29018.08
776.25	29237.13
776.43	28958.77
776.62	29211.57
776.81	28771.91
776.99	29017.51
777.18	29003.25
777.37	28773.55
777.55	28914.29
777.74	28938.37
777.93	28975.81
778.12	28932.56
778.30	28699.17
778.49	28750.37
778.68	28834.66
778.86	28817.21
779.05	28995.39
779.24	28852.85
779.42	28661.65
779.61	28539.26
779.80	28599.39
779.98	28704.99
780.17	28750.12
780.36	28505.76
780.54	28741.68
780.73	28236.57
780.92	28670.50
781.10	28452.59
781.29	28376.25
781.48	28167.60
781.66	28380.59
781.85	28406.80
782.04	28252.06
782.22	28301.37
782.41	28071.59
782.60	28253.45
782.78	28291.71
782.97	28283.35
783.16	27965.50
783.34	28041.61
783.53	28100.67
783.71	27947.07
783.90	27923.81
784.09	27961.08
784.27	27927.90
784.46	27956.99
784.65	28022.77
784.83	27827.72
785.02	27842.95
785.20	28117.55
785.39	27549.69
785.58	27992.37
785.76	27839.84
785.95	27850.00
786.14	27918.65
786.32	27935.52
786.51	27856.96
786.69	27999.42
786.88	27822.23
787.07	27724.34
787.25	27845.90
787.44	27719.58
787.62	27724.09
787.81	27812.97
788.00	27803.88
788.18	27522.24
788.37	27541.90
788.55	27929.79
788.74	27694.35
788.93	27761.69
789.11	27892.84
789.30	27749.89
789.48	27491.44
789.67	27807.48
789.86	27604.33
790.04	27724.25
790.23	27570.08
790.41	27481.12
790.60	27691.57
790.78	27643.81
790.97	27391.58
791.16	27601.46
791.34	27930.20
791.53	27532.32
791.71	27905.54
791.90	27667.89
792.08	27765.62
792.27	27850.08
792.46	27807.57
792.64	27843.61
792.83	27764.64
793.01	27835.25
793.20	27804.45
793.38	27797.00
793.57	27732.69
793.75	27789.63
793.94	27841.32
794.12	28075.36
794.31	27909.23
794.50	27999.99
794.68	28149.82
794.87	28000.65
795.05	28233.87
795.24	27965.42
795.42	27857.78
795.61	28272.13
795.79	28231.66
795.98	27846.64
796.16	28116.15
796.35	28168.17
796.53	27952.56
796.72	28099.61
796.90	28009.58
797.09	28000.81
797.27	27971.48
797.46	27889.65
797.64	28035.38
797.83	27958.62
798.01	28112.96
798.20	28266.15
798.38	28186.60
798.57	28421.14
798.75	28360.84
798.94	27969.19
799.12	28670.99
799.31	28289.25
799.49	28294.24
799.68	28207.33
799.86	28142.70
800.05	28174.32
800.23	28122.22
800.42	27984.51
800.60	28297.44
800.79	27918.89
800.97	28063.23
801.16	28237.31
801.34	27789.79
801.53	27790.94
801.71	27944.12
801.90	27768.08
802.08	28073.39
802.27	27891.45
802.45	27751.70
802.64	27883.01
802.82	28033.91
803.00	27640.70
803.19	27937.73
803.37	28156.62
803.56	27841.89
803.74	27761.94
803.93	27832.80
804.11	27714.75
804.30	27638.49
804.48	27786.10
804.67	27880.15
804.85	27743.26
805.03	27998.27
805.22	27744.41
805.40	27620.22
805.59	27717.70
805.77	27770.87
805.96	27555.42
806.14	27565.82
806.32	27638.81
806.51	27969.85
806.69	27735.72
806.88	27692.55
807.06	27617.02
807.25	27726.06
807.43	27623.00
807.61	27682.48
807.80	27507.01
807.98	27730.07
808.17	27509.46
808.35	27445.65
808.53	27785.20
808.72	27509.38
808.90	27547.56
809.09	27534.04
809.27	27564.92
809.45	27228.48
809.64	27438.11
809.82	27217.42
810.01	27250.85
810.19	27301.88
810.37	27149.51
810.56	27074.23
810.74	27279.60
810.93	26942.75
811.11	27048.34
811.29	26921.12
811.48	26957.25
811.66	26949.38
811.84	26917.19
812.03	26876.48
812.21	26888.36
812.40	26979.20
812.58	27108.96
812.76	26790.79
812.95	27167.70
813.13	26757.94
813.31	26864.60
813.50	26942.18
813.68	26854.69
813.86	26956.68
814.05	26951.19
814.23	26595.82
814.42	26759.17
814.60	26570.67
814.78	26697.32
814.97	26643.91
815.15	26663.08
815.33	26720.59
815.52	26548.31
815.70	26641.62
815.88	26668.98
816.07	26464.84
816.25	26471.31
816.43	26556.50
816.62	26284.12
816.80	26397.25
816.98	26299.93
817.17	26220.47
817.35	26176.56
817.53	26219.32
817.72	26324.18
817.90	26027.55
818.08	26038.04
818.26	26237.92
818.45	26012.56
818.63	26232.60
818.81	26146.58
819.00	25934.25
819.18	26100.46
819.36	26126.51
819.55	26108.41
819.73	25904.51
819.91	26036.56
820.09	25882.47
820.28	26086.12
820.46	25837.09
820.64	26224.81
820.83	25851.43
821.01	25869.61
821.19	25780.40
821.38	25823.25
821.56	25690.05
821.74	25832.59
821.92	25650.15
822.11	25836.76
822.29	25522.36
822.47	25537.27
822.65	25641.63
822.84	25731.74
823.02	25422.66
823.20	25752.88
823.39	25448.63
823.57	25470.34
823.75	25513.76
823.93	25301.26
824.12	25434.13
824.30	25230.40
824.48	25193.54
824.66	25360.82
824.85	24828.02
825.03	25261.04
825.21	25241.21
825.39	25071.23
825.58	25174.94
825.76	25088.35
825.94	25218.93
826.12	25060.67
826.31	24996.93
826.49	25100.23
826.67	25068.78
826.85	24916.73
827.03	24960.89
827.22	25028.80
827.40	24812.04
827.58	24760.76
827.76	24895.85
827.95	24731.84
828.13	24696.70
828.31	24693.01
828.49	24747.57
828.67	24623.22
828.86	24525.82
829.04	24617.08
829.22	24472.74
829.40	24383.85
829.58	24345.35
829.77	24495.02
829.95	24489.86
830.13	24496.41
830.31	24414.90
830.49	24437.59
830.68	24466.75
830.86	24291.61
831.04	24252.95
831.22	24237.63
831.40	24182.25
831.59	24345.35
831.77	24140.55
831.95	24345.35
832.13	23993.67
832.31	24212.89
832.50	24152.11
832.68	24005.06
832.86	24042.25
833.04	24192.49
833.22	23815.66
833.40	24251.47
833.59	23871.53
833.77	24147.03
833.95	23625.70
834.13	24312.17
834.31	23920.60
834.49	23924.37
834.67	23917.16
834.86	23967.71
835.04	23780.52
835.22	23928.06
835.40	23799.44
835.58	23777.08
835.76	23713.43
835.95	23758.65
836.13	23623.97
836.31	23513.88
836.49	23698.19
836.67	23701.80
836.85	23604.64
837.03	23547.14
837.21	23551.80
837.40	23396.81
837.58	23228.23
837.76	23391.00
837.94	23370.19
838.12	23522.72
838.30	23303.43
838.48	23317.84
838.66	23253.95
838.85	23219.95
839.03	23250.18
839.21	23185.38
839.39	23161.54
839.57	23193.16
839.75	23034.41
839.93	23065.53
840.11	23043.17
840.29	23023.10
840.47	23020.48
840.66	22994.43
840.84	22984.27
841.02	22859.92
841.20	22878.84
841.38	22920.62
841.56	22827.89
841.74	23116.57
841.92	22815.93
842.10	22835.59
842.28	22869.83
842.46	22763.66
842.65	22698.78
842.83	22817.73
843.01	22984.93
843.19	22626.86
843.37	22784.64
843.55	22613.02
843.73	22740.07
843.91	22673.64
844.09	22512.01
844.27	22747.03
844.45	22476.54
844.63	22476.13
844.81	22456.06
844.99	22486.70
845.17	22397.49
845.35	22503.65
845.54	22372.26
845.72	22319.09
845.90	22289.44
846.08	22350.71
846.26	22080.38
846.44	22308.93
846.62	22045.15
846.80	22081.53
846.98	22114.21
847.16	22090.05
847.34	22168.85
847.52	22121.99
847.70	22071.86
847.88	22154.68
848.06	21950.05
848.24	22112.90
848.42	21927.03
848.60	21771.38
848.78	21958.65
848.96	21806.44
849.14	21773.02
849.32	21895.00
849.50	21714.94
849.68	21873.37
849.86	21742.63
850.04	21650.72
850.22	21597.39
850.40	21479.92
850.58	21625.57
850.76	21970.12
850.94	21333.53
851.12	21658.01
851.30	21484.99
851.48	21648.75
851.66	21410.12
851.84	21304.53
852.02	21327.63
852.20	21506.05
852.38	21245.55
852.56	21303.05
852.74	21308.62
852.92	21219.91
853.10	21105.38
853.28	21257.34
853.46	20877.08
853.64	21129.22
853.82	20978.57
854.00	21015.93
854.18	20798.27
854.36	20801.05
854.54	20926.06
854.72	20776.89
854.90	20758.62
855.07	20858.48
855.25	20811.79
855.43	20815.23
855.61	20786.72
855.79	20705.37
855.97	20794.91
856.15	20781.39
856.33	20750.84
856.51	20840.13
856.69	20597.32
856.87	20790.57
857.05	20655.24
857.23	20700.05
857.41	20493.53
857.59	20613.46
857.77	20587.25
857.94	20563.82
858.12	20716.11
858.30	20519.91
858.48	20505.66
858.66	20453.56
858.84	20605.02
859.02	20344.60
859.20	20312.08
859.38	20494.35
859.56	20398.75
859.74	20269.89
859.92	20288.16
860.09	20127.85
860.27	20232.05
860.45	19988.01
860.63	20029.87
860.81	20167.50
860.99	19951.39
861.17	19792.39
861.35	19437.19
861.53	19352.16
861.70	19344.87
861.88	19742.25
862.06	19745.61
862.24	19423.10
862.42	19454.39
862.60	19676.80
862.78	19750.36
862.96	19780.10
863.14	19653.05
863.31	19769.53
863.49	19652.55
863.67	19668.12
863.85	19569.00
864.03	19687.12
864.21	19591.03
864.39	19584.97
864.56	19391.48
864.74	19492.57
864.92	19373.21
865.10	19358.79
865.28	19369.77
865.46	19599.47
865.64	19183.16
865.81	19433.26
865.99	19154.00
866.17	19359.28
866.35	19222.40
866.53	19198.15
866.71	19172.51
866.88	19165.71
867.06	19005.31
867.24	19090.84
867.42	18912.83
867.60	18989.75
867.78	18819.52
867.95	18990.24
868.13	18702.79
868.31	18859.74
868.49	18775.53
868.67	18659.62
868.84	18659.21
869.02	18796.99
869.20	18401.98
869.38	18714.34
869.56	18556.40
869.73	18457.69
869.91	18595.39
870.09	18521.99
870.27	18369.95
870.45	18506.51
870.62	18344.07
870.80	18534.12
870.98	18364.22
871.16	18429.02
871.34	18388.22
871.51	18466.29
871.69	18293.44
871.87	18337.27
872.05	18334.65
872.23	18288.61
872.40	18171.95
872.58	18254.53
872.76	18143.20
872.94	18101.42
873.11	18123.46
873.29	18021.72
873.47	18127.23
873.65	18012.46
873.83	17966.58
874.00	17984.44
874.18	18029.25
874.36	17847.39
874.54	17847.47
874.71	17688.88
874.89	17569.85
875.07	17665.21
875.25	17624.74
875.42	17695.11
875.60	17637.84
875.78	17701.66
875.96	17585.25
876.13	17689.13
876.31	17503.74
876.49	17551.09
876.66	17435.01
876.84	17668.15
877.02	17424.12
877.20	17518.08
877.37	17469.42
877.55	17451.40
877.73	17393.40
877.91	17320.33
878.08	17455.49
878.26	17397.17
878.44	17363.66
878.61	17355.88
878.79	17203.27
878.97	17223.34
879.15	17326.88
879.32	17307.22
879.50	17319.59
879.68	17391.27
879.85	17214.49
880.03	17396.76
880.21	17265.69
880.38	17370.46
880.56	17221.45
880.74	17452.54
880.92	17235.87
881.09	17343.35
881.27	17234.89
881.45	17311.81
881.62	17250.94
881.80	17149.69
881.98	17140.19
882.15	17242.75
882.33	17073.59
882.51	17102.67
882.68	17000.52
882.86	17194.66
883.04	16949.97
883.21	16968.90
883.39	17124.87
883.57	16934.41
883.74	16954.89
883.92	16966.52
884.10	16954.97
884.27	16947.02
884.45	16913.27
884.63	17088.17
884.80	17024.44
884.98	17026.16
885.16	16998.88
885.33	17016.90
885.51	16983.56
885.69	17025.34
885.86	16979.05
886.04	17051.22
886.21	16873.87
886.39	17020.59
886.57	16739.36
886.74	17024.03
886.92	16959.47
887.10	17031.24
887.27	16966.68
887.45	16976.35
887.62	16952.68
887.80	16984.13
887.98	17102.42
888.15	17058.27
888.33	16953.25
888.51	17174.92
888.68	17007.40
888.86	17047.62
889.03	16961.28
889.21	17035.17
889.39	17066.13
889.56	17089.64
889.74	16986.34
889.91	17071.05
890.09	16988.06
890.27	17070.64
890.44	16987.57
890.62	17011.49
890.79	17041.56
890.97	17089.32
891.14	17039.59
891.32	17053.03
891.50	16974.79
891.67	17076.86
891.85	17011.98
892.02	16918.27
892.20	17040.66
892.38	16965.78
892.55	16854.21
892.73	16968.49
892.90	16826.60
893.08	16948.74
893.25	16891.97
893.43	17032.79
893.60	16918.52
893.78	17063.02
893.96	16957.18
894.13	17015.10
894.31	17141.25
894.48	16976.68
894.66	17032.14
894.83	17069.90
895.01	17017.39
895.18	17032.71
895.36	16960.79
895.53	17054.42
895.71	16870.92
895.89	16958.33
896.06	16865.27
896.24	16929.82
896.41	16901.48
896.59	16970.86
896.76	16766.56
896.94	16908.36
897.11	16941.13
897.29	16984.46
897.46	16842.25
897.64	16865.60
897.81	16812.43
897.99	16694.30
898.16	16918.76
898.34	16818.08
898.51	16753.20
898.69	16718.22
898.86	16752.47
899.04	16772.45
899.21	16677.18
899.39	16706.18
899.56	16623.36
899.74	16786.95
899.91	16636.14
900.09	16611.40
900.26	16641.14
900.44	16477.87
900.61	16470.34
900.79	16680.30
900.96	16506.22
901.14	16511.71
901.31	16448.38
901.49	16448.79
901.66	16488.11
901.84	16497.78
902.01	16386.94
902.19	16415.62
902.36	16342.54
902.54	16322.47
902.71	16271.93
902.88	16364.99
903.06	16135.45
903.23	16387.76
903.41	16181.25
903.58	16159.62
903.76	16015.85
903.93	16152.08
904.11	16255.30
904.28	16119.32
904.45	16077.87
904.63	16064.59
904.80	15926.64
904.98	15993.57
905.15	15855.78
905.33	15975.22
905.50	15856.52
905.68	15858.73
905.85	15787.95
906.02	15786.32
906.20	15861.03
906.37	15689.82
906.55	15640.26
906.72	15804.26
906.90	15583.16
907.07	15529.34
907.24	15619.04
907.42	15496.98
907.59	15445.29
907.77	15365.34
907.94	15385.16
908.11	15412.44
908.29	15330.44
908.46	15359.93
908.64	15232.14
908.81	15256.14
908.98	15071.00
909.16	15204.86
909.33	15066.74
909.51	14996.54
909.68	15001.45
909.85	14969.26
910.03	14984.74
910.20	14885.29
910.37	14896.02
910.55	14800.83
910.72	14792.23
910.90	14671.65
911.07	14671.89
911.24	14624.79
911.42	14720.96
911.59	14556.55
911.76	14564.25
911.94	14515.27
912.11	14505.35
912.29	14527.14
912.46	14451.86
912.63	14454.48
912.81	14289.82
912.98	14422.21
913.15	14312.02
913.33	14397.79
913.50	14318.00
913.67	14221.42
913.85	14160.64
914.02	14161.62
914.19	14140.00
914.37	14080.28
914.54	14076.10
914.71	14048.00
914.89	14008.93
915.06	13979.60
915.23	13937.00
915.41	13857.54
915.58	13838.12
915.75	13758.83
915.93	13750.64
916.10	13680.35
916.27	13670.76
916.45	13625.96
916.62	13502.91
916.79	13641.77
916.97	13491.77
917.14	13477.76
917.31	13449.26
917.49	13464.33
917.66	13440.66
917.83	13358.24
918.00	13345.38
918.18	13268.30
918.35	13184.17
918.52	13279.28
918.70	13166.06
918.87	13120.43
919.04	13145.58
919.21	13082.42
919.39	13015.66
919.56	13035.16
919.73	12903.27
919.91	12966.92
920.08	12880.82
920.25	12828.64
920.42	12980.35
920.60	12774.41
920.77	12742.30
920.94	12823.81
921.11	12633.67
921.29	12710.10
921.46	12530.70
921.63	12659.64
921.81	12535.04
921.98	12476.72
922.15	12499.41
922.32	12523.49
922.50	12469.67
922.67	12419.70
922.84	12338.27
923.01	12288.88
923.19	12307.39
923.36	12276.67
923.53	12052.13
923.70	12200.41
923.87	12104.81
924.05	12120.45
924.22	11999.29
924.39	12045.25
924.56	11910.99
924.74	11942.52
924.91	11931.47
925.08	11882.56
925.25	11854.63
925.43	11871.58
925.60	11749.85
925.77	11855.20
925.94	11763.53
926.11	11779.18
926.29	11684.24
926.46	11691.20
926.63	11646.96
926.80	11651.39
926.97	11512.12
927.15	11607.89
927.32	11471.74
927.49	11431.76
927.66	11425.21
927.83	11445.36
928.01	11321.42
928.18	11324.37
928.35	11206.89
928.52	11281.44
928.69	11107.77
928.87	11203.62
929.04	11117.60
929.21	11136.12
929.38	11017.91
929.55	11055.18
929.72	10959.99
929.90	10971.71
930.07	10968.35
930.24	10869.72
930.41	10878.15
930.58	10860.71
930.75	10849.81
930.93	10820.07
931.10	10790.75
931.27	10695.56
931.44	10715.14
931.61	10668.28
931.78	10695.72
931.95	10623.31
932.13	10542.04
932.30	10662.87
932.47	10470.04
932.64	10542.62
932.81	10495.59
932.98	10481.34
933.15	10469.46
933.33	10405.81
933.50	10472.66
933.67	10353.71
933.84	10374.68
934.01	10370.42
934.18	10376.65
934.35	10334.54
934.52	10346.26
934.70	10297.10
934.87	10325.53
935.04	10234.85
935.21	10253.52
935.38	10160.14
935.55	10155.63
935.72	10229.60
935.89	10087.56
936.06	10075.11
936.24	10004.00
936.41	10109.35
936.58	10009.16
936.75	9977.87
936.92	9990.24
937.09	9974.43
937.26	9855.48
937.43	9904.55
937.60	9859.09
937.77	9837.46
937.94	9829.27
938.12	9808.95
938.29	9731.21
938.46	9816.08
938.63	9693.94
938.80	9737.19
938.97	9690.82
939.14	9652.24
939.31	9593.91
939.48	9605.30
939.65	9511.91
939.82	9481.85
939.99	9514.37
940.16	9523.05
940.33	9462.03
940.50	9424.18
940.67	9409.35
940.85	9426.23
941.02	9410.99
941.19	9390.02
941.36	9338.57
941.53	9303.84
941.70	9264.60
941.87	9213.24
942.04	9221.35
942.21	9209.06
942.38	9161.79
942.55	9092.57
942.72	9116.66
942.89	9110.92
943.06	9023.43
943.23	9039.57
943.40	9009.01
943.57	9001.40
943.74	9007.46
943.91	9003.36
944.08	8933.24
944.25	8989.03
944.42	8912.92
944.59	8885.32
944.76	8908.91
944.93	8820.85
945.10	8841.33
945.27	8822.65
945.44	8764.08
945.61	8787.59
945.78	8733.93
945.95	8741.39
946.12	8672.90
946.29	8689.45
946.46	8636.53
946.63	8621.21
946.80	8610.48
946.97	8623.34
947.14	8514.14
947.31	8591.56
947.48	8496.61
947.65	8498.01
947.82	8496.29
947.99	8535.52
948.16	8439.11
948.33	8525.69
948.50	8456.47
948.67	8436.65
948.84	8392.49
949.01	8351.70
949.18	8358.09
949.35	8382.09
949.52	8267.81
949.68	8304.02
949.85	8263.80
950.02	8238.81
950.19	8181.23
950.36	8164.10
950.53	8188.60
950.70	8128.88
950.87	8088.90
951.04	8161.48
951.21	8080.55
951.38	8079.07
951.55	8083.50
951.72	8061.05
951.89	8031.56
952.06	8046.14
952.23	8027.96
952.39	7971.68
952.56	7922.85
952.73	7966.68
952.90	7889.51
953.07	7951.61
953.24	7823.08
953.41	7845.03
953.58	7787.36
953.75	7855.35
953.92	7781.38
954.09	7743.53
954.25	7695.37
954.42	7722.56
954.59	7664.97
954.76	7648.34
954.93	7621.39
955.10	7653.18
955.27	7569.62
955.44	7600.26
955.61	7545.37
955.77	7615.00
955.94	7551.93
956.11	7592.97
956.28	7566.10
956.45	7543.08
956.62	7580.84
956.79	7541.52
956.96	7521.21
957.12	7473.53
957.29	7527.60
957.46	7510.80
957.63	7447.64
957.80	7426.02
957.97	7397.67
958.14	7439.04
958.30	7358.02
958.47	7355.98
958.64	7318.38
958.81	7377.11
958.98	7262.67
959.15	7301.91
959.32	7300.11
959.48	7280.61
959.65	7215.90
959.82	7230.39
959.99	7143.89
960.16	7215.90
960.33	7162.65
960.49	7137.09
960.66	7123.90
960.83	7105.80
961.00	7112.68
961.17	7093.10
961.33	7094.82
961.50	7070.24
961.67	7030.35
961.84	7063.94
962.01	7007.66
962.18	7063.94
962.34	6983.00
962.51	7008.39
962.68	6948.10
962.85	7019.21
963.02	6902.64
963.18	6933.36
963.35	6887.07
963.52	6915.17
963.69	6924.02
963.86	6914.93
964.02	6829.16
964.19	6854.55
964.36	6816.38
964.53	6812.04
964.69	6762.56
964.86	6814.49
965.03	6712.59
965.20	6764.69
965.37	6669.66
965.53	6678.59
965.70	6651.31
965.87	6682.60
966.04	6643.77
966.20	6623.05
966.37	6603.63
966.54	6552.52
966.71	6613.87
966.87	6559.23
967.04	6587.17
967.21	6544.57
967.38	6525.81
967.54	6558.58
967.71	6500.91
967.88	6511.07
968.05	6498.04
968.21	6455.28
968.38	6401.38
968.55	6409.73
968.72	6424.40
968.88	6370.17
969.05	6407.36
969.22	6354.85
969.39	6370.00
969.55	6374.26
969.72	6315.03
969.89	6307.01
970.05	6334.12
970.22	6335.10
970.39	6297.26
970.56	6326.91
970.72	6262.93
970.89	6294.96
971.06	6249.75
971.22	6244.26
971.39	6231.31
971.56	6250.56
971.73	6195.92
971.89	6248.35
972.06	6165.61
972.23	6155.37
972.39	6099.92
972.56	6155.62
972.73	6089.10
972.89	6130.72
973.06	6116.38
973.23	6110.48
973.39	6038.72
973.56	6118.43
973.73	6069.52
973.89	6084.68
974.06	6012.10
974.23	6010.05
974.39	6001.45
974.56	5988.75
974.73	5966.31
974.89	5946.48
975.06	5936.57
975.23	5984.98
975.39	5923.22
975.56	5910.93
975.73	5876.93
975.89	5907.24
976.06	5917.65
976.23	5850.80
976.39	5857.76
976.56	5832.78
976.73	5871.03
976.89	5832.04
977.06	5808.94
977.23	5775.52
977.39	5780.51
977.56	5801.08
977.72	5733.82
977.89	5763.15
978.06	5727.76
978.22	5720.96
978.39	5704.49
978.56	5687.54
978.72	5676.40
978.89	5674.51
979.05	5631.42
979.22	5667.06
979.39	5617.91
979.55	5610.04
979.72	5584.40
979.88	5643.79
980.05	5576.70
980.22	5602.42
980.38	5562.37
980.55	5555.89
980.71	5535.33
980.88	5554.26
981.05	5542.05
981.21	5555.24
981.38	5502.40
981.54	5542.29
981.71	5483.56
981.88	5490.77
982.04	5500.35
982.21	5490.60
982.37	5459.88
982.54	5471.84
982.70	5465.21
982.87	5441.21
983.04	5390.01
983.20	5458.82
983.37	5387.06
983.53	5405.00
983.70	5398.53
983.86	5371.08
984.03	5356.67
984.20	5396.64
984.36	5373.30
984.53	5377.06
984.69	5326.11
984.86	5313.00
985.02	5330.37
985.19	5316.12
985.35	5287.45
985.52	5281.63
985.68	5265.25
985.85	5256.56
986.02	5266.80
986.18	5258.86
986.35	5260.00
986.51	5259.68
986.68	5224.20
986.84	5201.02
987.01	5215.68
987.17	5203.23
987.34	5177.26
987.50	5172.10
987.67	5145.32
987.83	5165.06
988.00	5132.13
988.16	5130.00
988.33	5121.64
988.49	5110.75
988.66	5072.08
988.82	5105.83
988.99	5071.92
989.15	5084.29
989.32	5049.55
989.48	5063.64
989.65	5026.29
989.81	4999.67
989.98	4999.67
990.14	4983.85
990.31	4972.88
990.47	4967.39
990.64	4967.80
990.80	4962.80
990.97	4943.63
991.13	4980.00
991.30	4938.31
991.46	4918.98
991.63	4893.17
991.79	4942.57
991.95	4864.99
992.12	4916.85
992.28	4877.36
992.45	4889.16
992.61	4878.10
992.78	4858.68
992.94	4839.19
993.11	4892.93
993.27	4841.23
993.44	4839.84
993.60	4828.86
993.76	4832.55
993.93	4805.60
994.09	4817.31
994.26	4799.95
994.42	4776.44
994.59	4745.23
994.75	4811.01
994.91	4771.85
995.08	4747.60
995.24	4740.80
995.41	4751.78
995.57	4728.92
995.74	4713.03
995.90	4701.81
996.06	4697.63
996.23	4705.82
996.39	4694.60
996.56	4673.96
996.72	4697.79
996.88	4669.78
997.05	4658.39
997.21	4661.50
997.38	4662.65
997.54	4640.86
997.70	4635.37
997.87	4635.45
998.03	4616.45
998.20	4583.52
998.36	4606.05
998.52	4576.15
998.69	4616.69
998.85	4590.32
999.02	4575.24
999.18	4570.57
999.34	4579.34
999.51	4563.53
999.67	4555.17
999.83	4554.68
1000.00	4538.46
1000.16	4510.69
1000.33	4529.62
1000.49	4505.61
1000.65	4519.62
1000.82	4500.53
1000.98	4498.73
1001.14	4480.46
1001.31	4502.01
1001.47	4471.78
1001.63	4487.67
1001.80	4456.79
1001.96	4433.85
1002.12	4415.09
1002.29	4462.36
1002.45	4429.18
1002.61	4411.41
1002.78	4431.23
1002.94	4427.22
1003.10	4387.81
1003.27	4409.85
1003.43	4378.31
1003.59	4389.37
1003.76	4369.14
1003.92	4380.20
1004.08	4357.50
1004.25	4358.49
1004.41	4353.57
1004.57	4360.54
1004.74	4319.74
1004.90	4362.83
1005.06	4311.47
1005.23	4319.58
1005.39	4316.14
1005.55	4322.77
1005.71	4328.91
1005.88	4326.46
1006.04	4316.87
1006.20	4324.25
1006.37	4271.08
1006.53	4271.08
1006.69	4244.05
1006.85	4292.46
1007.02	4242.16
1007.18	4239.05
1007.34	4246.42
1007.51	4242.65
1007.67	4225.78
1007.83	4217.83
1007.99	4207.27
1008.16	4216.93
1008.32	4190.88
1008.48	4213.82
1008.64	4179.41
1008.81	4210.95
1008.97	4171.63
1009.13	4190.14
1009.29	4163.27
1009.46	4196.70
1009.62	4181.30
1009.78	4146.65
1009.95	4165.24
1010.11	4158.77
1010.27	4125.02
1010.43	4135.01
1010.59	4152.38
1010.76	4114.04
1010.92	4112.32
1011.08	4121.50
1011.24	4084.47
1011.41	4130.75
1011.57	4081.68
1011.73	4092.01
1011.89	4053.75
1012.06	4091.84
1012.22	4057.60
1012.38	4055.22
1012.54	4029.83
1012.70	4048.34
1012.87	4023.36
1013.03	4043.35
1013.19	4029.26
1013.35	4031.14
1013.51	4009.60
1013.68	4020.65
1013.84	4000.91
1014.00	4027.86
1014.16	3967.49
1014.32	3986.99
1014.49	3981.01
1014.65	4002.63
1014.81	3962.49
1014.97	3995.75
1015.13	3940.13
1015.30	3956.35
1015.46	3949.30
1015.62	3970.93
1015.78	3974.70
1015.94	3940.62
1016.10	3929.56
1016.27	3933.82
1016.43	3921.53
1016.59	3934.48
1016.75	3921.04
1016.91	3921.20
1017.07	3908.02
1017.24	3895.97
1017.40	3881.56
1017.56	3887.78
1017.72	3878.44
1017.88	3883.44
1018.04	3872.95
1018.21	3867.79
1018.37	3872.71
1018.53	3868.86
1018.69	3857.96
1018.85	3840.76
1019.01	3849.28
1019.17	3852.47
1019.34	3840.84
1019.50	3855.42
1019.66	3819.63
1019.82	3843.22
1019.98	3814.87
1020.14	3858.54
1020.30	3823.31
1020.46	3823.80
1020.63	3812.25
1020.79	3804.96
1020.95	3806.27
1021.11	3794.39
1021.27	3793.49
1021.43	3795.05
1021.59	3817.82
1021.75	3787.27
1021.91	3756.22
1022.07	3780.22
1022.24	3753.68
1022.40	3771.38
1022.56	3745.24
1022.72	3756.88
1022.88	3745.90
1023.04	3748.19
1023.20	3731.81
1023.36	3751.63
1023.52	3730.17
1023.68	3731.97
1023.84	3716.24
1024.01	3708.54
1024.17	3734.59
1024.33	3712.23
1024.49	3691.91
1024.65	3698.47
1024.81	3706.33
1024.97	3710.18
1025.13	3696.50
1025.29	3704.37
1025.45	3686.02
1025.61	3694.45
1025.77	3677.66
1025.93	3680.04
1026.09	3673.65
1026.25	3683.64
1026.41	3660.38
1026.57	3666.68
1026.73	3678.64
1026.90	3669.30
1027.06	3666.85
1027.22	3672.09
1027.38	3668.81
1027.54	3681.59
1027.70	3653.08
1027.86	3653.82
1028.02	3653.82
1028.18	3641.86
1028.34	3633.42
1028.50	3661.85
1028.66	3657.51
1028.82	3656.69
1028.98	3624.33
1029.14	3617.12
1029.30	3629.66
1029.46	3621.38
1029.62	3627.20
1029.78	3607.95
1029.94	3611.14
1030.10	3624.33
1030.26	3583.54
1030.42	3597.46
1030.58	3598.85
1030.74	3594.92
1030.90	3577.06
1031.06	3575.26
1031.22	3577.23
1031.38	3562.89
1031.54	3568.30
1031.70	3573.54
1031.86	3571.58
1032.02	3591.97
1032.18	3544.38
1032.34	3552.32
1032.50	3557.08
1032.66	3557.49
1032.82	3537.09
1032.98	3567.40
1033.14	3545.20
1033.30	3558.14
1033.45	3546.67
1033.61	3557.16
1033.77	3534.47
1033.93	3555.68
1034.09	3542.25
1034.25	3536.02
1034.41	3524.55
1034.57	3525.62
1034.73	3512.68
1034.89	3526.36
1035.05	3544.21
1035.21	3513.90
1035.37	3500.22
1035.53	3508.83
1035.69	3522.18
1035.85	3532.42
1036.01	3491.05
1036.16	3492.69
1036.32	3494.49
1036.48	3483.68
1036.64	3483.02
1036.80	3502.76
1036.96	3481.79
1037.12	3493.02
1037.28	3496.87
1037.44	3483.68
1037.60	3481.38
1037.76	3470.00
1037.91	3476.96
1038.07	3492.44
1038.23	3475.40
1038.39	3479.74
1038.55	3467.54
1038.71	3485.72
1038.87	3434.28
1039.03	3483.84
1039.19	3455.91
1039.35	3454.43
1039.50	3471.96
1039.66	3477.29
1039.82	3440.34
1039.98	3471.06
1040.14	3438.29
1040.30	3449.84
1040.46	3436.41
1040.62	3441.41
1040.77	3443.21
1040.93	3456.40
1041.09	3435.18
1041.25	3431.25
1041.41	3436.49
1041.57	3448.04
1041.73	3448.04
1041.88	3448.04

