SpectraSuite Data File
++++++++++++++++++++++++++++++++++++
Date: Tue Sep 20 11:46:22 EDT 2022
User: Laboratoire
Dark Spectrum Present: No
Reference Spectrum Present: No
Number of Sampled Component Spectra: 1
Spectrometers: FLMT00174
Integration Time (usec): 15000 (FLMT00174)
Spectra Averaged: 25 (FLMT00174)
Boxcar Smoothing: 0 (FLMT00174)
Correct for Electrical Dark: No (FLMT00174)
Strobe/Lamp Enabled: No (FLMT00174)
Correct for Detector Non-linearity: No (FLMT00174)
Correct for Stray Light: No (FLMT00174)
Number of Pixels in Processed Spectrum: 3648
>>>>>Begin Processed Spectral Data<<<<<
345.74	3160.02
345.96	3160.02
346.18	3160.02
346.39	3159.03
346.61	3187.46
346.83	3201.79
347.05	3208.10
347.27	3211.87
347.49	3191.64
347.71	3212.77
347.93	3222.93
348.15	3206.38
348.36	3196.63
348.58	3217.20
348.80	3213.92
349.02	3197.53
349.24	3217.52
349.46	3298.13
349.68	3340.32
349.90	3327.46
350.11	3329.75
350.33	3328.85
350.55	3322.87
350.77	3333.93
350.99	3330.41
351.21	3348.18
351.43	3308.94
351.65	3341.96
351.86	3312.38
352.08	3332.62
352.30	3319.51
352.52	3351.71
352.74	3315.50
352.96	3328.36
353.18	3343.19
353.39	3342.45
353.61	3326.56
353.83	3351.54
354.05	3355.88
354.27	3342.28
354.49	3326.47
354.70	3338.19
354.92	3342.28
355.14	3338.68
355.36	3325.41
355.58	3327.46
355.80	3340.40
356.02	3342.04
356.23	3331.23
356.45	3344.99
356.67	3343.02
356.89	3363.17
357.11	3337.86
357.33	3345.23
357.54	3330.08
357.76	3334.09
357.98	3334.58
358.20	3354.16
358.42	3325.41
358.63	3329.83
358.85	3342.28
359.07	3345.40
359.29	3317.05
359.51	3347.86
359.73	3326.07
359.94	3349.41
360.16	3334.91
360.38	3327.29
360.60	3327.29
360.82	3345.64
361.03	3326.39
361.25	3335.08
361.47	3349.33
361.69	3373.25
361.91	3321.40
362.12	3353.02
362.34	3328.52
362.56	3359.49
362.78	3348.18
363.00	3359.98
363.21	3337.37
363.43	3366.37
363.65	3325.33
363.87	3347.69
364.09	3350.15
364.30	3341.96
364.52	3341.14
364.74	3350.72
364.96	3361.45
365.17	3332.54
365.39	3331.31
365.61	3337.45
365.83	3356.62
366.05	3343.02
366.26	3333.85
366.48	3347.04
366.70	3372.68
366.92	3361.54
367.13	3351.30
367.35	3364.48
367.57	3356.78
367.79	3365.71
368.01	3337.53
368.22	3376.20
368.44	3344.82
368.66	3346.87
368.88	3352.12
369.09	3338.43
369.31	3353.59
369.53	3360.72
369.75	3350.48
369.96	3374.32
370.18	3353.18
370.40	3372.51
370.62	3354.25
370.83	3360.39
371.05	3376.85
371.27	3379.07
371.49	3338.52
371.70	3359.98
371.92	3376.36
372.14	3382.26
372.36	3351.79
372.57	3374.72
372.79	3366.29
373.01	3367.93
373.22	3356.62
373.44	3359.32
373.66	3355.39
373.88	3370.79
374.09	3372.10
374.31	3349.90
374.53	3357.77
374.75	3381.85
374.96	3366.37
375.18	3398.56
375.40	3368.09
375.61	3370.79
375.83	3369.40
376.05	3390.04
376.27	3371.04
376.48	3364.40
376.70	3390.86
376.92	3363.09
377.13	3360.14
377.35	3366.37
377.57	3391.35
377.79	3373.00
378.00	3372.35
378.22	3400.53
378.44	3360.39
378.65	3398.89
378.87	3379.64
379.09	3396.60
379.30	3378.25
379.52	3401.51
379.74	3365.63
379.96	3390.29
380.17	3386.19
380.39	3390.94
380.61	3399.46
380.82	3400.94
381.04	3394.14
381.26	3417.73
381.47	3398.32
381.69	3420.85
381.91	3382.43
382.12	3410.52
382.34	3424.94
382.56	3412.49
382.77	3410.52
382.99	3425.51
383.21	3424.04
383.42	3434.36
383.64	3411.83
383.86	3420.76
384.07	3437.80
384.29	3431.33
384.51	3425.19
384.72	3427.23
384.94	3412.49
385.16	3434.77
385.37	3419.94
385.59	3427.64
385.81	3437.39
386.02	3430.84
386.24	3447.30
386.46	3428.46
386.67	3456.89
386.89	3455.25
387.11	3473.35
387.32	3458.36
387.54	3451.40
387.76	3468.69
387.97	3472.78
388.19	3474.26
388.40	3469.01
388.62	3462.71
388.84	3497.93
389.05	3491.38
389.27	3492.69
389.49	3490.64
389.70	3468.60
389.92	3509.32
390.14	3496.21
390.35	3508.33
390.57	3500.06
390.78	3507.52
391.00	3502.85
391.22	3512.43
391.43	3511.37
391.65	3544.05
391.86	3523.49
392.08	3562.97
392.30	3513.90
392.51	3524.23
392.73	3553.80
392.95	3549.29
393.16	3516.77
393.38	3580.59
393.59	3547.00
393.81	3573.71
394.03	3565.10
394.24	3559.78
394.46	3559.21
394.67	3573.54
394.89	3587.71
395.11	3603.85
395.32	3603.52
395.54	3609.83
395.75	3592.22
395.97	3596.15
396.19	3587.63
396.40	3632.85
396.62	3626.79
396.83	3627.69
397.05	3623.10
397.26	3648.42
397.48	3629.16
397.70	3644.40
397.91	3687.90
398.13	3652.51
398.34	3644.89
398.56	3670.37
398.78	3679.87
398.99	3719.11
399.21	3679.71
399.42	3685.28
399.64	3685.93
399.85	3693.47
400.07	3706.17
400.29	3726.81
400.50	3707.15
400.72	3754.17
400.93	3717.39
401.15	3719.77
401.36	3744.34
401.58	3749.67
401.79	3767.85
402.01	3772.52
402.23	3765.64
402.44	3806.44
402.66	3791.86
402.87	3787.68
403.09	3809.88
403.30	3803.82
403.52	3815.45
403.73	3815.45
403.95	3821.02
404.16	3826.59
404.38	3838.96
404.60	3829.87
404.81	3857.31
405.03	3862.22
405.24	3866.81
405.46	3867.71
405.67	3889.42
405.89	3893.60
406.10	3882.95
406.32	3889.17
406.53	3902.20
406.75	3942.09
406.96	3932.35
407.18	3926.28
407.39	3934.56
407.61	3950.86
407.82	3971.75
408.04	3989.61
408.25	3939.06
408.47	3984.86
408.68	3992.39
408.90	3994.36
409.12	4014.43
409.33	4019.92
409.55	4006.24
409.76	4031.55
409.98	4033.93
410.19	4036.71
410.41	4088.40
410.62	4088.16
410.84	4079.06
411.05	4097.33
411.27	4111.75
411.48	4088.73
411.70	4100.61
411.91	4124.94
412.12	4131.49
412.34	4128.05
412.55	4128.30
412.77	4147.22
412.98	4174.09
413.20	4190.64
413.41	4172.45
413.63	4173.51
413.84	4203.82
414.06	4230.78
414.27	4233.32
414.49	4239.54
414.70	4228.73
414.92	4264.36
415.13	4232.91
415.35	4264.85
415.56	4287.71
415.78	4297.54
415.99	4307.62
416.21	4323.02
416.42	4368.73
416.63	4365.70
416.85	4367.91
417.06	4369.63
417.28	4342.10
417.49	4420.34
417.71	4401.66
417.92	4400.92
418.14	4412.31
418.35	4435.49
418.57	4473.17
418.78	4461.95
418.99	4458.18
419.21	4491.93
419.42	4510.69
419.64	4512.00
419.85	4505.45
420.07	4560.50
420.28	4548.21
420.50	4530.19
420.71	4592.53
420.92	4589.83
421.14	4622.76
421.35	4606.86
421.57	4614.97
421.78	4630.95
422.00	4651.84
422.21	4694.76
422.42	4668.80
422.64	4644.96
422.85	4728.84
423.07	4741.05
423.28	4726.22
423.50	4754.56
423.71	4779.06
423.92	4818.54
424.14	4797.24
424.35	4788.56
424.57	4829.52
424.78	4856.31
424.99	4865.81
425.21	4897.76
425.42	4906.03
425.64	4885.80
425.85	4926.59
426.06	4917.50
426.28	4946.50
426.49	4998.52
426.71	4987.46
426.92	5012.12
427.13	5055.21
427.35	5067.82
427.56	5085.19
427.78	5085.68
427.99	5096.98
428.20	5160.72
428.42	5181.52
428.63	5180.79
428.84	5142.78
429.06	5205.28
429.27	5232.97
429.49	5256.64
429.70	5299.24
429.91	5269.10
430.13	5312.35
430.34	5311.28
430.56	5331.76
430.77	5369.45
430.98	5360.19
431.20	5416.80
431.41	5460.70
431.62	5453.58
431.84	5424.50
432.05	5512.39
432.26	5510.18
432.48	5446.94
432.69	5556.06
432.91	5560.32
433.12	5608.65
433.33	5600.38
433.55	5683.11
433.76	5683.69
433.97	5649.20
434.19	5704.49
434.40	5748.98
434.61	5749.80
434.83	5791.98
435.04	5763.89
435.25	5839.74
435.47	5833.35
435.68	5810.74
435.89	5892.25
436.11	5898.64
436.32	5938.78
436.53	5963.36
436.75	5918.55
436.96	5985.07
437.17	5945.01
437.39	5996.21
437.60	6042.82
437.81	6068.05
438.03	6077.31
438.24	6105.98
438.45	6166.02
438.67	6141.78
438.88	6197.89
439.09	6262.93
439.31	6244.01
439.52	6288.41
439.73	6266.29
439.94	6236.64
440.16	6321.42
440.37	6311.84
440.58	6409.40
440.80	6434.31
441.01	6351.57
441.22	6565.79
441.44	6525.89
441.65	6508.53
441.86	6528.76
442.08	6562.02
442.29	6556.20
442.50	6648.53
442.71	6607.57
442.93	6665.48
443.14	6644.92
443.35	6772.63
443.57	6674.58
443.78	6773.94
443.99	6822.85
444.20	6762.97
444.42	6843.08
444.63	6855.45
444.84	6903.70
445.06	6946.87
445.27	6879.95
445.48	6910.83
445.69	6977.59
445.91	6973.66
446.12	6938.85
446.33	7074.18
446.54	7157.57
446.76	7066.72
446.97	7140.69
447.18	7119.89
447.39	7190.17
447.61	7206.06
447.82	7269.47
448.03	7221.88
448.25	7287.90
448.46	7355.24
448.67	7404.39
448.88	7336.07
449.10	7465.42
449.31	7490.65
449.52	7456.08
449.73	7510.23
449.95	7637.53
450.16	7531.20
450.37	7696.51
450.58	7827.34
450.79	7643.51
451.01	7722.89
451.22	7697.82
451.43	7763.52
451.64	7822.42
451.86	7843.39
452.07	7914.42
452.28	7962.83
452.49	8072.27
452.71	7969.79
452.92	7954.39
453.13	8064.16
453.34	8078.66
453.55	8219.07
453.77	8248.81
453.98	8271.58
454.19	8195.23
454.40	8300.25
454.62	8382.01
454.83	8280.43
455.04	8484.98
455.25	8343.83
455.46	8675.11
455.68	8511.52
455.89	8509.80
456.10	8598.44
456.31	8615.31
456.52	8711.32
456.74	8667.17
456.95	8874.59
457.16	8759.90
457.37	8917.02
457.58	8903.83
457.80	8895.80
458.01	8890.40
458.22	9286.06
458.43	9072.67
458.64	9159.58
458.86	9044.24
459.07	9198.98
459.28	9160.32
459.49	9287.13
459.70	9518.22
459.91	9438.19
460.13	9448.02
460.34	9471.28
460.55	9486.68
460.76	9646.26
460.97	9644.21
461.19	9665.76
461.40	9932.08
461.61	9760.37
461.82	9834.10
462.03	9922.49
462.24	9922.41
462.46	9958.45
462.67	9937.65
462.88	10158.25
463.09	10119.01
463.30	10281.62
463.51	10152.52
463.72	10414.33
463.94	10450.46
464.15	10421.46
464.36	10356.74
464.57	10719.23
464.78	10639.77
464.99	10703.09
465.20	10637.31
465.42	10856.69
465.63	10872.01
465.84	10892.57
466.05	11050.59
466.26	11107.85
466.47	11206.08
466.68	11126.29
466.90	11342.14
467.11	11259.40
467.32	11429.71
467.53	11592.24
467.74	11405.55
467.95	11534.08
468.16	11750.92
468.37	11847.83
468.59	11812.44
468.80	12036.08
469.01	11861.10
469.22	12081.13
469.43	12354.08
469.64	12181.81
469.85	12376.61
470.06	12443.62
470.28	12585.51
470.49	12376.45
470.70	12596.73
470.91	12894.58
471.12	12774.66
471.33	13090.45
471.54	12969.87
471.75	13018.77
471.96	13340.96
472.17	13260.43
472.39	13623.42
472.60	13389.13
472.81	13709.02
473.02	13653.97
473.23	13904.56
473.44	14014.41
473.65	13951.91
473.86	14141.14
474.07	14205.04
474.28	14278.85
474.49	14607.01
474.71	14579.49
474.92	14755.37
475.13	14689.34
475.34	14799.20
475.55	14873.09
475.76	15031.35
475.97	15325.77
476.18	15332.81
476.39	15583.73
476.60	15711.36
476.81	15754.04
477.02	15992.26
477.23	16012.99
477.44	16028.55
477.65	16272.09
477.87	16486.48
478.08	16571.02
478.29	16628.44
478.50	17037.13
478.71	16890.91
478.92	17123.56
479.13	17150.76
479.34	17294.93
479.55	17418.30
479.76	17448.94
479.97	17601.06
480.18	18123.95
480.39	17750.89
480.60	18206.61
480.81	18292.95
481.02	18375.44
481.23	18457.69
481.44	18756.77
481.65	18956.74
481.86	19235.01
482.07	18821.57
482.28	19693.92
482.49	19429.49
482.71	19501.91
482.92	19742.09
483.13	20041.91
483.34	19939.92
483.55	20172.49
483.76	20229.59
483.97	20481.49
484.18	20525.40
484.39	20718.73
484.60	20685.88
484.81	21179.11
485.02	21024.12
485.23	21465.33
485.44	21541.76
485.65	21810.21
485.86	21640.89
486.07	22065.63
486.28	22021.23
486.49	22347.68
486.70	22451.39
486.91	22776.12
487.12	22577.30
487.33	22607.04
487.54	23126.81
487.75	23218.89
487.96	23285.98
488.17	23268.20
488.38	23622.66
488.59	23729.98
488.80	23871.94
489.01	23875.47
489.22	24257.70
489.43	24309.23
489.64	24152.11
489.85	24800.00
490.06	24359.93
490.26	24883.15
490.47	24781.65
490.68	25186.33
490.89	25461.00
491.10	25227.86
491.31	25564.96
491.52	25899.02
491.73	25779.42
491.94	25888.45
492.15	26124.95
492.36	26194.18
492.57	26307.22
492.78	26378.82
492.99	26552.41
493.20	26773.34
493.41	26863.12
493.62	27013.20
493.83	26958.31
494.04	27167.70
494.25	27490.54
494.46	27552.55
494.67	27414.36
494.88	27744.57
495.08	27837.47
495.29	28034.23
495.50	28288.35
495.71	28197.50
495.92	28497.89
496.13	28621.02
496.34	28440.47
496.55	28640.19
496.76	29111.79
496.97	28670.66
497.18	29208.95
497.39	29058.30
497.60	29621.25
497.81	29213.37
498.02	29628.70
498.22	29293.90
498.43	29814.82
498.64	29967.35
498.85	29960.23
499.06	30072.54
499.27	30526.12
499.48	29957.60
499.69	30402.51
499.90	30490.40
500.11	30721.82
500.32	31116.76
500.52	30764.10
500.73	31462.94
500.94	31406.67
501.15	31487.52
501.36	31601.88
501.57	31426.33
501.78	31703.46
501.99	31953.47
502.20	31908.17
502.41	32031.71
502.61	31981.16
502.82	32458.01
503.03	32044.98
503.24	32626.60
503.45	32379.53
503.66	32812.06
503.87	32752.84
504.08	33079.45
504.28	32912.00
504.49	33097.30
504.70	33234.35
504.91	33428.01
505.12	33245.00
505.33	33789.76
505.54	33741.76
505.75	33967.69
505.95	34136.53
506.16	34010.54
506.37	33931.40
506.58	34477.96
506.79	34005.62
507.00	34649.09
507.21	34287.26
507.41	34470.43
507.62	34596.09
507.83	35099.48
508.04	34689.64
508.25	35118.73
508.46	34957.76
508.67	35436.90
508.87	35213.92
509.08	35702.57
509.29	35551.84
509.50	35778.10
509.71	35887.70
509.92	36085.05
510.12	35835.19
510.33	36203.50
510.54	36054.98
510.75	36360.70
510.96	36550.59
511.17	36827.39
511.37	36645.04
511.58	36981.81
511.79	36790.04
512.00	36800.52
512.21	37324.07
512.42	37304.41
512.62	37411.31
512.83	37692.13
513.04	37632.82
513.25	37956.07
513.46	37273.85
513.66	38293.58
513.87	37984.99
514.08	38326.26
514.29	38079.28
514.50	38142.11
514.71	38508.61
514.91	38342.64
515.12	38419.81
515.33	38780.91
515.54	38635.75
515.75	39185.59
515.95	38890.35
516.16	38915.01
516.37	39489.26
516.58	39493.85
516.78	39243.18
516.99	39622.38
517.20	39560.37
517.41	39718.88
517.62	39949.07
517.82	39871.17
518.03	40443.94
518.24	40885.48
518.45	40210.06
518.66	40649.80
518.86	40345.64
519.07	40956.92
519.28	40294.19
519.49	41177.52
519.69	41210.70
519.90	41194.81
520.11	41324.73
520.32	41214.47
520.52	41712.70
520.73	41381.50
520.94	41967.06
521.15	41902.01
521.36	41470.88
521.56	42434.16
521.77	41798.06
521.98	42489.86
522.19	42049.06
522.39	42438.17
522.60	42272.29
522.81	42553.27
523.02	42365.84
523.22	42793.78
523.43	42925.92
523.64	42824.58
523.84	43001.86
524.05	43445.85
524.26	43484.44
524.47	43309.62
524.67	43506.15
524.88	43704.47
525.09	44040.01
525.30	43796.96
525.50	43803.51
525.71	43970.30
525.92	44089.57
526.13	44436.99
526.33	44129.71
526.54	44039.93
526.75	44379.89
526.95	44805.62
527.16	44120.95
527.37	44880.25
527.58	45075.22
527.78	44943.90
527.99	45336.21
528.20	45579.92
528.40	45252.57
528.61	45198.10
528.82	45726.15
529.03	45676.83
529.23	45586.80
529.44	45995.08
529.65	45964.61
529.85	46110.26
530.06	45985.99
530.27	46124.60
530.47	45664.30
530.68	46706.06
530.89	45810.44
531.09	46596.37
531.30	46542.38
531.51	46255.01
531.72	46972.78
531.92	46927.81
532.13	47198.55
532.34	47024.48
532.54	47058.23
532.75	47218.38
532.96	47147.85
533.16	47523.52
533.37	47744.13
533.58	47457.25
533.78	47873.07
533.99	48026.59
534.20	47556.05
534.40	47917.39
534.61	48037.24
534.82	48315.27
535.02	48321.58
535.23	48382.36
535.44	48649.83
535.64	48434.79
535.85	48711.51
536.06	48707.99
536.26	48630.98
536.47	48701.11
536.68	49417.16
536.88	48755.50
537.09	49553.47
537.29	48948.91
537.50	49904.90
537.71	49377.35
537.91	49646.20
538.12	49854.19
538.33	49530.94
538.53	49746.80
538.74	49900.32
538.95	49962.00
539.15	49869.19
539.36	50307.78
539.56	50533.71
539.77	50059.65
539.98	50160.33
540.18	50584.99
540.39	50338.74
540.60	50769.80
540.80	50954.69
541.01	50929.13
541.21	50974.19
541.42	51136.14
541.63	51043.00
541.83	51261.48
542.04	51323.33
542.25	51324.39
542.45	51600.46
542.66	51555.16
542.86	51808.61
543.07	50747.52
543.28	51840.89
543.48	51668.45
543.69	51972.86
543.89	51786.74
544.10	52447.09
544.31	52184.13
544.51	52034.13
544.72	52332.48
544.92	52170.37
545.13	52640.99
545.33	52595.20
545.54	52376.96
545.75	52747.89
545.95	52535.56
546.16	52621.33
546.36	53211.06
546.57	52362.38
546.78	51639.37
546.98	52405.88
547.19	51472.83
547.39	52667.61
547.60	52931.14
547.80	53631.55
548.01	53655.88
548.22	53266.52
548.42	53363.59
548.63	53715.84
548.83	53478.28
549.04	53924.66
549.24	53659.32
549.45	53993.30
549.65	54319.34
549.86	53551.68
550.07	53878.29
550.27	54349.40
550.48	54409.45
550.68	54214.73
550.89	54219.07
551.09	54462.37
551.30	54199.49
551.50	54581.07
551.71	54419.69
551.91	54356.70
552.12	54619.33
552.33	54926.85
552.53	54360.79
552.74	55118.70
552.94	55145.33
553.15	54946.35
553.35	55285.90
553.56	54841.41
553.76	55389.36
553.97	54977.88
554.17	55323.50
554.38	55969.84
554.58	55262.55
554.79	55953.70
554.99	55334.40
555.20	55443.84
555.40	56069.70
555.61	55704.75
555.81	55391.17
556.02	56427.36
556.22	56204.54
556.43	56019.56
556.63	56087.06
556.84	55957.96
557.04	56522.46
557.25	55828.94
557.45	56390.33
557.66	56375.01
557.86	56161.61
558.07	56911.41
558.27	56443.98
558.48	56667.46
558.68	56650.99
558.89	56847.84
559.09	56864.47
559.30	56536.31
559.50	56819.91
559.71	56330.36
559.91	57255.31
560.12	56901.34
560.32	56952.45
560.53	57243.35
560.73	56886.92
560.94	57495.41
561.14	56945.16
561.35	57706.84
561.55	57430.70
561.76	57546.20
561.96	56876.02
562.17	57501.39
562.37	57785.08
562.57	57429.55
562.78	57474.85
562.98	57834.88
563.19	57882.89
563.39	57985.86
563.60	58032.96
563.80	57582.16
564.01	58268.07
564.21	57931.47
564.42	57904.51
564.62	58107.75
564.82	58628.59
565.03	58015.19
565.23	58026.00
565.44	58311.40
565.64	58081.21
565.85	58458.28
566.05	58298.95
566.25	58680.28
566.46	58240.30
566.66	58509.24
566.87	58532.26
567.07	58542.83
567.28	58725.59
567.48	59125.84
567.68	58355.64
567.89	59378.31
568.09	58862.06
568.30	58855.59
568.50	59364.31
568.71	59169.01
568.91	59479.65
569.11	59121.34
569.32	59085.21
569.52	59334.32
569.73	58679.88
569.93	59483.01
570.13	59125.68
570.34	59171.96
570.54	59701.24
570.75	59478.66
570.95	59444.91
571.15	59324.49
571.36	59890.55
571.56	59309.58
571.77	59338.09
571.97	58876.97
572.17	59671.50
572.38	59569.19
572.58	59863.11
572.79	59679.04
572.99	59717.87
573.19	59733.92
573.40	59627.18
573.60	59769.89
573.81	59710.17
574.01	60034.98
574.21	59853.85
574.42	60033.34
574.62	59681.66
574.82	60218.39
575.03	59855.41
575.23	60397.14
575.43	59911.61
575.64	60023.75
575.84	60433.26
576.05	59943.55
576.25	60198.16
576.45	60193.65
576.66	60719.32
576.86	60249.03
577.06	60681.31
577.27	60496.83
577.47	60615.70
577.67	60585.88
577.88	60076.84
578.08	60783.79
578.28	60881.20
578.49	60652.48
578.69	60844.91
578.89	60485.94
579.10	60666.98
579.30	61313.56
579.50	60827.13
579.71	60349.05
579.91	61047.74
580.11	60710.23
580.32	60683.20
580.52	60580.88
580.72	61346.41
580.93	60796.57
581.13	60943.95
581.33	61409.00
581.54	60985.48
581.74	60961.15
581.94	61141.53
582.15	61368.86
582.35	61094.43
582.55	61246.55
582.76	60890.62
582.96	61517.95
583.16	61186.59
583.37	61424.89
583.57	61160.78
583.77	61800.57
583.97	60663.37
584.18	61929.84
584.38	61693.26
584.58	61251.88
584.79	61854.64
584.99	61752.24
585.19	61582.58
585.40	61471.67
585.60	61953.02
585.80	61303.08
586.00	61731.51
586.21	61632.88
586.41	61810.89
586.61	61961.54
586.82	61877.41
587.02	61794.10
587.22	62149.95
587.42	61405.80
587.63	62219.58
587.83	61516.72
588.03	61949.42
588.23	61586.43
588.44	61918.45
588.64	61608.96
588.84	61952.69
589.05	62254.97
589.25	62287.74
589.45	62332.30
589.65	62036.17
589.86	62286.18
590.06	62201.81
590.26	62110.47
590.46	62525.47
590.67	61728.24
590.87	62518.18
591.07	62708.97
591.27	62085.65
591.48	62581.58
591.68	61852.59
591.88	62983.15
592.08	62033.96
592.29	62607.06
592.49	62418.48
592.69	62717.24
592.89	62353.11
593.10	62435.52
593.30	62260.46
593.50	62932.77
593.70	61825.72
593.90	62825.95
594.11	62642.53
594.31	62684.31
594.51	62950.05
594.71	63014.93
594.92	63037.54
595.12	62905.33
595.32	62854.54
595.52	63163.45
595.72	62382.36
595.93	63183.77
596.13	62848.88
596.33	62467.31
596.53	62920.07
596.73	62812.51
596.94	62708.39
597.14	63193.19
597.34	62867.56
597.54	63287.15
597.74	62812.02
597.95	62952.10
598.15	62873.30
598.35	63162.55
598.55	63255.61
598.75	62862.24
598.96	63502.02
599.16	63122.98
599.36	63183.28
599.56	63015.83
599.76	63025.50
599.97	63600.32
600.17	63280.27
600.37	63458.28
600.57	62614.76
600.77	63742.86
600.97	63223.99
601.18	63854.03
601.38	63308.04
601.58	63603.03
601.78	63527.01
601.98	63165.01
602.18	63740.24
602.39	64135.34
602.59	63774.57
602.79	63532.33
602.99	63347.85
603.19	63553.47
603.39	63307.14
603.60	63352.77
603.80	63580.66
604.00	63496.62
604.20	63693.14
604.40	63829.04
604.60	63511.28
604.80	63587.71
605.01	63754.82
605.21	63658.65
605.41	63477.53
605.61	63196.38
605.81	63576.32
606.01	63873.93
606.21	63397.74
606.42	63850.75
606.62	63593.61
606.82	64191.20
607.02	63773.83
607.22	63936.93
607.42	64135.09
607.62	63492.19
607.82	63666.52
608.03	63691.34
608.23	63520.29
608.43	63319.18
608.63	63832.32
608.83	63841.90
609.03	63841.66
609.23	63897.69
609.43	64091.59
609.63	63929.80
609.84	63681.10
610.04	64380.03
610.24	64305.81
610.44	64223.89
610.64	64022.62
610.84	64305.73
611.04	64637.50
611.24	64240.68
611.44	63610.48
611.64	64146.23
611.85	64058.74
612.05	63944.47
612.25	64129.36
612.45	63857.22
612.65	64239.78
612.85	64347.83
613.05	63977.64
613.25	64499.71
613.45	64266.90
613.65	64264.60
613.85	63805.04
614.05	64308.68
614.25	64477.27
614.46	64204.89
614.66	63995.42
614.86	63815.20
615.06	64006.48
615.26	64413.94
615.46	63617.86
615.66	64422.71
615.86	64289.75
616.06	63943.89
616.26	64008.77
616.46	64541.08
616.66	64064.56
616.86	64527.40
617.06	64082.17
617.26	64581.38
617.46	64211.68
617.66	63967.16
617.86	63776.53
618.07	64265.34
618.27	64135.17
618.47	64173.35
618.67	64263.29
618.87	64354.96
619.07	63934.96
619.27	63821.10
619.47	63894.17
619.67	64338.74
619.87	63833.47
620.07	64287.30
620.27	64190.06
620.47	63865.66
620.67	64186.21
620.87	64148.61
621.07	64364.30
621.27	64220.29
621.47	63813.07
621.67	64198.66
621.87	63725.91
622.07	64243.14
622.27	64064.64
622.47	63829.37
622.67	64004.02
622.87	63585.01
623.07	64073.49
623.27	64385.11
623.47	63493.91
623.67	64090.61
623.87	64471.94
624.07	64298.27
624.27	63917.02
624.47	64226.51
624.67	64121.49
624.87	64333.33
625.07	63957.57
625.27	64489.23
625.47	64061.04
625.67	63911.70
625.87	64182.19
626.07	63943.81
626.27	64226.84
626.47	64051.45
626.67	63941.68
626.87	63620.97
627.07	64092.33
627.27	63984.85
627.47	64163.68
627.67	63836.50
627.87	63730.99
628.07	64161.30
628.27	63913.17
628.47	63749.74
628.67	64356.27
628.86	64309.82
629.06	63887.45
629.26	63756.38
629.46	64330.71
629.66	64105.60
629.86	63551.75
630.06	64088.48
630.26	63950.69
630.46	64318.92
630.66	63731.07
630.86	63937.42
631.06	63912.19
631.26	63532.09
631.46	64120.35
631.66	64032.36
631.86	63607.21
632.06	64205.54
632.26	63896.71
632.45	63838.71
632.65	64018.36
632.85	64042.52
633.05	63902.20
633.25	63977.07
633.45	63587.55
633.65	63715.50
633.85	64297.45
634.05	63165.01
634.25	63630.88
634.45	63620.80
634.65	64106.58
634.84	63532.33
635.04	63823.96
635.24	63395.12
635.44	63791.20
635.64	63459.10
635.84	63749.25
636.04	63491.37
636.24	63567.89
636.44	63753.92
636.64	63144.94
636.84	64202.18
637.03	63434.03
637.23	63717.88
637.43	63812.00
637.63	63524.39
637.83	63664.79
638.03	63625.88
638.23	63137.48
638.43	63661.85
638.62	63852.14
638.82	62804.16
639.02	63738.52
639.22	63346.38
639.42	63730.17
639.62	63275.76
639.82	63441.65
640.02	63533.56
640.21	63688.80
640.41	63104.63
640.61	63565.67
640.81	63354.57
641.01	63289.69
641.21	63214.82
641.41	63834.78
641.61	63209.00
641.80	63212.52
642.00	63510.05
642.20	63528.15
642.40	62775.81
642.60	63364.24
642.80	63475.56
642.99	63006.66
643.19	63364.24
643.39	62807.76
643.59	63261.75
643.79	63122.82
643.99	63234.64
644.19	63057.70
644.38	62523.50
644.58	63010.10
644.78	62879.52
644.98	62808.74
645.18	63046.96
645.38	63354.57
645.57	62892.71
645.77	63118.89
645.97	62883.70
646.17	63266.18
646.37	63142.81
646.56	62911.47
646.76	62972.66
646.96	62985.85
647.16	62594.94
647.36	62824.14
647.55	62661.45
647.75	62719.45
647.95	62428.80
648.15	62711.67
648.35	62693.98
648.55	62877.47
648.74	62610.01
648.94	62589.28
649.14	62971.35
649.34	62387.68
649.54	62390.79
649.73	62448.71
649.93	62161.67
650.13	62385.88
650.33	62189.77
650.52	62483.28
650.72	62746.49
650.92	62359.75
651.12	62195.58
651.32	62490.74
651.51	62623.77
651.71	62593.38
651.91	62226.63
652.11	62090.48
652.30	61907.97
652.50	62429.54
652.70	62386.62
652.90	62085.16
653.10	62436.42
653.29	62172.56
653.49	62614.43
653.69	61937.13
653.89	62140.53
654.08	62070.33
654.28	62419.38
654.48	62097.03
654.68	62380.88
654.87	62148.15
655.07	61797.54
655.27	62324.03
655.47	61886.83
655.66	61892.40
655.86	61712.75
656.06	62228.27
656.26	61375.17
656.45	61742.65
656.65	61548.59
656.85	61404.08
657.04	61082.47
657.24	61140.63
657.44	61117.61
657.64	61815.97
657.83	60828.85
658.03	61653.28
658.23	61574.64
658.43	61317.17
658.62	61456.51
658.82	61266.46
659.02	61227.30
659.21	61390.16
659.41	61173.48
659.61	61703.82
659.81	61248.19
660.00	60918.22
660.20	61159.23
660.40	60841.22
660.59	61022.75
660.79	60583.91
660.99	61119.83
661.19	61056.91
661.38	60973.03
661.58	60208.32
661.78	60652.07
661.97	60353.97
662.17	61124.82
662.37	60270.49
662.56	60352.49
662.76	60424.17
662.96	60539.59
663.15	60649.69
663.35	60567.53
663.55	60322.51
663.74	60047.51
663.94	60577.85
664.14	60009.99
664.33	60408.36
664.53	60200.45
664.73	60726.21
664.93	59828.38
665.12	60333.08
665.32	60030.96
665.52	60023.26
665.71	59809.53
665.91	60007.20
666.10	59679.94
666.30	60049.15
666.50	59457.94
666.69	59559.35
666.89	60082.98
667.09	60307.85
667.28	59756.86
667.48	59622.60
667.68	59679.78
667.87	59705.99
668.07	59357.26
668.27	59805.93
668.46	59809.94
668.66	59405.59
668.86	59924.63
669.05	59468.34
669.25	59765.13
669.44	59399.86
669.64	59415.10
669.84	59556.82
670.03	59911.69
670.23	59377.33
670.43	59359.39
670.62	59280.26
670.82	59066.61
671.01	59364.39
671.21	58924.07
671.41	59009.76
671.60	59340.71
671.80	59615.55
672.00	59126.41
672.19	59528.96
672.39	59325.64
672.58	59178.92
672.78	58918.83
672.98	59403.38
673.17	59057.60
673.37	58385.79
673.56	58737.79
673.76	58949.55
673.96	59107.82
674.15	58756.47
674.35	58816.02
674.54	58762.86
674.74	58715.26
674.94	58585.67
675.13	58895.73
675.33	58165.34
675.52	58840.93
675.72	58748.36
675.91	58645.88
676.11	58935.71
676.31	58247.67
676.50	58382.84
676.70	58240.22
676.89	58325.09
677.09	58386.61
677.28	58432.07
677.48	57717.74
677.68	58240.05
677.87	57855.36
678.07	57873.22
678.26	58010.27
678.46	58208.35
678.65	57984.38
678.85	58337.05
679.04	57767.71
679.24	58083.34
679.44	57750.75
679.63	58149.62
679.83	57876.25
680.02	57916.15
680.22	57472.39
680.41	57666.79
680.61	57310.52
680.80	57313.06
681.00	57412.26
681.19	57492.79
681.39	57331.49
681.59	57166.02
681.78	56989.24
681.98	57468.71
682.17	56662.71
682.37	57150.45
682.56	56698.67
682.76	57319.78
682.95	56897.41
683.15	56818.60
683.34	56741.10
683.54	56847.03
683.73	57034.86
683.93	56493.79
684.12	56962.04
684.32	57136.61
684.51	56416.38
684.71	56747.82
684.90	56503.21
685.10	56421.62
685.29	56199.95
685.49	56514.52
685.68	56440.63
685.88	56420.88
686.07	56066.59
686.27	56552.53
686.46	56236.57
686.66	56118.11
686.85	56549.66
687.05	56182.75
687.24	56016.61
687.44	56296.69
687.63	56094.03
687.83	55435.48
688.02	55915.12
688.22	56128.84
688.41	55841.88
688.61	55914.95
688.80	56067.90
689.00	55622.91
689.19	55407.38
689.39	56055.53
689.58	55868.92
689.77	55762.58
689.97	55794.37
690.16	55408.29
690.36	54910.79
690.55	54783.49
690.75	55527.81
690.94	55121.73
691.14	55324.73
691.33	54642.18
691.53	55224.95
691.72	54942.09
691.91	55029.66
692.11	54944.38
692.30	55050.06
692.50	55077.33
692.69	54590.41
692.89	54854.11
693.08	54671.75
693.28	54536.83
693.47	54794.47
693.66	54700.67
693.86	54437.71
694.05	54335.72
694.25	54258.56
694.44	54500.46
694.64	54363.08
694.83	54399.13
695.02	54418.87
695.22	54551.42
695.41	54043.03
695.61	53862.48
695.80	53905.32
695.99	53831.51
696.19	53891.23
696.38	53855.76
696.58	53453.46
696.77	54319.18
696.96	54075.14
697.16	53820.29
697.35	53775.48
697.55	53704.46
697.74	53395.46
697.93	53833.81
698.13	53217.37
698.32	53426.75
698.52	53082.12
698.71	52724.38
698.90	53575.19
699.10	52987.34
699.29	53137.91
699.49	53531.86
699.68	53132.91
699.87	53066.15
700.07	53404.88
700.26	53085.64
700.45	52875.36
700.65	52550.47
700.84	52953.34
701.04	52476.66
701.23	52601.01
701.42	52477.15
701.62	52293.57
701.81	52455.28
702.00	52374.75
702.20	51925.02
702.39	52265.80
702.58	52616.25
702.78	52177.49
702.97	52213.05
703.17	52207.15
703.36	52113.19
703.55	51823.28
703.75	51689.83
703.94	51793.21
704.13	51500.02
704.33	51434.82
704.52	52033.73
704.71	51808.45
704.91	51786.08
705.10	51543.03
705.29	51727.84
705.49	51755.04
705.68	51632.49
705.87	51563.68
706.07	51014.33
706.26	51608.48
706.45	50890.96
706.65	50691.90
706.84	51201.35
707.03	51472.83
707.23	50691.81
707.42	50683.79
707.61	51060.37
707.80	50607.60
708.00	50794.29
708.19	50547.31
708.38	51038.66
708.58	50151.07
708.77	50887.27
708.96	50292.46
709.16	50126.90
709.35	51017.69
709.54	50435.90
709.74	50184.49
709.93	49777.44
710.12	50502.09
710.31	50760.13
710.51	50066.86
710.70	50040.56
710.89	50153.94
711.09	49491.05
711.28	49500.96
711.47	49965.77
711.66	49827.57
711.86	49631.87
712.05	49721.57
712.24	49906.95
712.43	49398.56
712.63	48820.46
712.82	49482.20
713.01	49204.50
713.21	48796.62
713.40	48996.18
713.59	49548.56
713.78	48821.20
713.98	49337.94
714.17	49094.23
714.36	48954.48
714.55	48396.86
714.75	48609.36
714.94	48571.59
715.13	48836.35
715.32	48169.78
715.52	48497.29
715.71	48057.88
715.90	48155.28
716.09	47944.75
716.29	48295.28
716.48	48046.25
716.67	47431.12
716.86	47946.55
717.06	47896.01
717.25	48065.74
717.44	48222.86
717.63	48109.00
717.82	47549.25
718.02	47710.30
718.21	47873.97
718.40	47966.05
718.59	47675.98
718.79	47473.23
718.98	47339.45
719.17	47639.69
719.36	47673.52
719.55	47365.91
719.75	47311.44
719.94	47169.23
720.13	47433.82
720.32	47177.42
720.51	46792.65
720.71	46751.28
720.90	46266.24
721.09	46635.77
721.28	46352.91
721.47	46940.84
721.67	46649.04
721.86	46753.98
722.05	46738.99
722.24	46245.02
722.43	46644.13
722.63	46144.01
722.82	46261.89
723.01	46180.71
723.20	45744.17
723.39	45783.49
723.58	45971.74
723.78	45406.17
723.97	45911.28
724.16	45463.92
724.35	45709.93
724.54	45420.01
724.73	45835.10
724.93	45510.45
725.12	45792.66
725.31	44974.62
725.50	45324.25
725.69	45601.30
725.88	45249.79
726.08	44740.74
726.27	45201.46
726.46	44399.96
726.65	45305.74
726.84	44634.00
727.03	44857.89
727.23	45121.75
727.42	44706.91
727.61	44646.87
727.80	44385.95
727.99	44659.81
728.18	44653.09
728.37	44439.86
728.56	44248.09
728.76	44023.55
728.95	44344.83
729.14	44213.27
729.33	44095.31
729.52	44082.12
729.71	44063.03
729.90	43864.21
730.09	43488.78
730.29	43892.97
730.48	43310.03
730.67	43838.00
730.86	43373.44
731.05	43798.27
731.24	43459.54
731.43	43577.99
731.62	43261.78
731.81	43187.73
732.01	43691.86
732.20	43205.51
732.39	43482.31
732.58	43355.50
732.77	42639.20
732.96	43261.05
733.15	43269.65
733.34	42902.24
733.53	42956.55
733.72	42980.72
733.92	42946.40
734.11	42879.47
734.30	42729.23
734.49	42946.89
734.68	42703.34
734.87	42561.79
735.06	42592.83
735.25	42605.29
735.44	42252.54
735.63	42301.94
735.82	42347.32
736.01	42070.36
736.20	42061.84
736.40	42338.80
736.59	42132.12
736.78	42351.99
736.97	41914.30
737.16	41993.60
737.35	42025.47
737.54	42066.67
737.73	41875.96
737.92	42028.50
738.11	42144.66
738.30	41821.90
738.49	41668.63
738.68	41645.53
738.87	41760.87
739.06	41498.07
739.25	41633.57
739.44	41630.21
739.63	41509.79
739.82	41191.61
740.01	41391.66
740.20	40867.46
740.39	40864.60
740.59	40915.14
740.78	40868.61
740.97	40602.86
741.16	40493.91
741.35	40669.30
741.54	40484.74
741.73	40606.14
741.92	40432.15
742.11	40552.98
742.30	40560.76
742.49	40233.74
742.68	40538.39
742.87	40484.49
743.06	39996.26
743.25	40348.10
743.44	40038.44
743.63	40316.23
743.82	39971.68
744.01	39974.63
744.20	39635.57
744.39	39965.62
744.58	39700.94
744.77	39595.18
744.96	39238.10
745.15	39730.02
745.34	39431.26
745.53	39517.36
745.72	39215.16
745.91	39295.11
746.10	38991.11
746.29	39377.77
746.48	39234.00
746.67	39109.81
746.86	39121.28
747.04	38984.07
747.23	38802.21
747.42	39107.27
747.61	38726.68
747.80	39326.73
747.99	38683.43
748.18	39087.45
748.37	38992.42
748.56	38483.79
748.75	38721.27
748.94	38564.32
749.13	38596.43
749.32	38322.82
749.51	38457.17
749.70	38396.22
749.89	38242.38
750.08	38298.33
750.27	37892.34
750.46	38159.31
750.65	38383.85
750.84	37898.81
751.02	38129.49
751.21	38031.84
751.40	38155.05
751.59	38106.72
751.78	37895.12
751.97	37946.32
752.16	37598.74
752.35	37937.56
752.54	37479.55
752.73	37903.72
752.92	37540.91
753.11	37476.52
753.30	37562.94
753.49	37625.77
753.67	37473.90
753.86	37176.86
754.05	37495.69
754.24	37192.83
754.43	37173.99
754.62	37300.72
754.81	36845.58
755.00	37033.42
755.19	37006.96
755.38	36541.41
755.56	36926.68
755.75	37090.84
755.94	36563.21
756.13	36672.73
756.32	36784.71
756.51	36574.76
756.70	36682.89
756.89	36575.17
757.08	36419.60
757.26	36538.63
757.45	36408.62
757.64	36189.90
757.83	36607.85
758.02	36271.90
758.21	36257.40
758.40	36344.97
758.59	36236.68
758.77	36086.85
758.96	36184.25
759.15	36148.12
759.34	35814.39
759.53	35951.76
759.72	35804.97
759.91	35540.45
760.09	35782.11
760.28	35836.83
760.47	35378.50
760.66	35765.15
760.85	35282.08
761.04	35595.17
761.23	35462.14
761.41	35372.76
761.60	35576.41
761.79	35245.54
761.98	35039.68
762.17	35308.70
762.36	34934.74
762.54	35421.59
762.73	35166.90
762.92	34941.46
763.11	35303.21
763.30	35384.39
763.49	35147.08
763.67	35004.54
763.86	35019.86
764.05	35220.48
764.24	35033.62
764.43	35273.15
764.61	34703.65
764.80	34839.80
764.99	35095.14
765.18	34641.88
765.37	34775.41
765.55	34763.29
765.74	34467.23
765.93	34225.65
766.12	34467.97
766.31	34440.44
766.49	34420.95
766.68	34408.82
766.87	34289.14
767.06	34137.84
767.25	34265.06
767.43	34203.95
767.62	34027.90
767.81	34284.47
768.00	33939.76
768.19	33885.20
768.37	34046.83
768.56	34044.61
768.75	34047.64
768.94	34100.81
769.12	33832.85
769.31	33776.74
769.50	33733.81
769.69	33831.21
769.88	33281.79
770.06	33882.82
770.25	33358.22
770.44	33295.47
770.63	33566.04
770.81	33473.80
771.00	33337.90
771.19	33448.24
771.38	33293.17
771.56	33463.97
771.75	32799.78
771.94	33217.15
772.13	33149.65
772.31	32997.69
772.50	33400.49
772.69	33109.27
772.88	33513.53
773.06	32915.36
773.25	33094.60
773.44	33132.45
773.62	33010.47
773.81	33129.25
774.00	32940.84
774.19	33095.26
774.37	32855.64
774.56	33246.15
774.75	32679.60
774.94	33059.54
775.12	32719.33
775.31	32909.38
775.50	32831.97
775.68	32701.23
775.87	32606.28
776.06	32424.59
776.25	32736.13
776.43	32424.26
776.62	32709.83
776.81	32289.01
776.99	32502.66
777.18	32430.49
777.37	32057.67
777.55	32207.50
777.74	32262.80
777.93	32234.62
778.12	32155.65
778.30	31989.19
778.49	32027.28
778.68	32077.83
778.86	32027.77
779.05	32147.46
779.24	32145.16
779.42	31916.12
779.61	31840.67
779.80	31867.79
779.98	31983.21
780.17	32096.18
780.36	31707.64
780.54	31984.68
780.73	31384.22
780.92	31896.38
781.10	31672.66
781.29	31568.70
781.48	31397.33
781.66	31420.18
781.85	31495.88
782.04	31285.10
782.22	31460.98
782.41	31225.79
782.60	31406.09
782.78	31304.59
782.97	31435.09
783.16	31040.90
783.34	31084.07
783.53	31235.54
783.71	31010.10
783.90	31017.72
784.09	31032.87
784.27	30985.52
784.46	30914.25
784.65	30930.06
784.83	30717.97
785.02	30751.48
785.20	31130.19
785.39	30575.68
785.58	31125.85
785.76	30947.92
785.95	30899.18
786.14	31001.17
786.32	30899.92
786.51	30773.52
786.69	30961.44
786.88	30869.85
787.07	30824.31
787.25	30885.50
787.44	30903.36
787.62	30755.90
787.81	30963.49
788.00	30822.75
788.18	30673.17
788.37	30636.96
788.55	31147.56
788.74	30718.47
788.93	30750.17
789.11	31008.62
789.30	30888.53
789.48	30668.50
789.67	30880.91
789.86	30807.76
790.04	30922.61
790.23	30841.10
790.41	30702.49
790.60	30995.43
790.78	30986.18
790.97	30560.04
791.16	30858.63
791.34	31224.23
791.53	30684.39
791.71	31123.96
791.90	30768.52
792.08	30935.80
792.27	30914.83
792.46	30796.53
792.64	30816.11
792.83	30651.95
793.01	30697.74
793.20	30628.77
793.38	30599.93
793.57	30728.79
793.75	30740.42
793.94	30818.98
794.12	31062.93
794.31	30733.46
794.50	30863.79
794.68	31025.17
794.87	30883.12
795.05	31099.88
795.24	30868.62
795.42	30743.94
795.61	31247.58
795.79	31168.04
795.98	30764.50
796.16	31094.80
796.35	31069.73
796.53	30823.08
796.72	31102.01
796.90	31057.12
797.09	31011.49
797.27	31023.04
797.46	30895.41
797.64	31133.96
797.83	31068.42
798.01	31148.13
798.20	31185.89
798.38	30892.46
798.57	31209.98
798.75	31052.20
798.94	30636.22
799.12	31394.87
799.31	31004.36
799.49	31030.74
799.68	30833.81
799.86	30885.74
800.05	30855.43
800.23	30889.68
800.42	30741.32
800.60	31044.67
800.79	30583.55
800.97	30837.33
801.16	31032.62
801.34	30601.40
801.53	30654.49
801.71	30845.93
801.90	30541.28
802.08	30932.44
802.27	30715.93
802.45	30511.29
802.64	30804.64
802.82	30893.53
803.00	30498.84
803.19	30616.72
803.37	30910.57
803.56	30667.76
803.74	30681.44
803.93	30730.02
804.11	30580.43
804.30	30396.12
804.48	30627.86
804.67	30640.07
804.85	30449.28
805.03	30759.51
805.22	30369.82
805.40	30283.89
805.59	30440.02
805.77	30481.56
805.96	30238.83
806.14	30299.53
806.32	30297.73
806.51	30617.95
806.69	30306.33
806.88	30201.48
807.06	30150.85
807.25	30151.34
807.43	30163.96
807.61	30201.97
807.80	29996.02
807.98	30175.43
808.17	29880.85
808.35	29820.15
808.53	30245.63
808.72	30137.74
808.90	30040.02
809.09	30143.07
809.27	30138.65
809.45	29894.86
809.64	30133.48
809.82	29821.70
810.01	29816.95
810.19	29958.59
810.37	29754.86
810.56	29617.40
810.74	29820.96
810.93	29436.27
811.11	29516.14
811.29	29285.30
811.48	29443.24
811.66	29356.57
811.84	29319.87
812.03	29188.31
812.21	29178.31
812.40	29362.22
812.58	29410.88
812.76	29166.02
812.95	29330.19
813.13	28949.43
813.31	29177.08
813.50	29289.56
813.68	29165.12
813.86	29370.25
814.05	29431.20
814.23	29063.54
814.42	29268.59
814.60	29025.78
814.78	29215.34
814.97	29105.49
815.15	29071.16
815.33	29119.74
815.52	28959.34
815.70	28949.59
815.88	28988.59
816.07	28683.69
816.25	28852.93
816.43	28853.50
816.62	28498.80
816.80	28677.13
816.98	28576.62
817.17	28561.55
817.35	28575.31
817.53	28622.41
817.72	28730.13
817.90	28364.69
818.08	28382.80
818.26	28542.29
818.45	28234.85
818.63	28426.22
818.81	28348.07
819.00	27924.22
819.18	28279.83
819.36	28238.62
819.55	28194.96
819.73	28035.22
819.91	28232.23
820.09	28107.72
820.28	28332.58
820.46	28064.30
820.64	28392.63
820.83	27957.07
821.01	28042.92
821.19	27989.34
821.38	27993.68
821.56	27814.94
821.74	28029.32
821.92	27735.64
822.11	27998.60
822.29	27628.00
822.47	27734.66
822.65	27820.75
822.84	27895.71
823.02	27580.24
823.20	27941.91
823.39	27578.60
823.57	27609.81
823.75	27679.69
823.93	27487.35
824.12	27665.19
824.30	27526.99
824.48	27425.58
824.66	27674.61
824.85	27195.39
825.03	27537.89
825.21	27587.70
825.39	27361.27
825.58	27432.71
825.76	27322.85
825.94	27259.77
826.12	27131.00
826.31	27049.49
826.49	27155.41
826.67	27167.12
826.85	27021.72
827.03	27077.01
827.22	27224.96
827.40	26970.36
827.58	26991.82
827.76	27060.96
827.95	26891.30
828.13	26912.60
828.31	26876.23
828.49	26929.48
828.67	26839.45
828.86	26622.45
829.04	26727.55
829.22	26548.80
829.40	26464.26
829.58	26450.91
829.77	26565.68
829.95	26505.22
830.13	26476.22
830.31	26400.20
830.49	26468.60
830.68	26446.90
830.86	26312.06
831.04	26217.19
831.22	26295.43
831.40	26254.71
831.59	26357.85
831.77	26068.35
831.95	26290.76
832.13	25926.38
832.31	26102.84
832.50	26109.64
832.68	25924.58
832.86	25960.05
833.04	26162.64
833.22	25800.15
833.40	26160.83
833.59	25837.09
833.77	26058.35
833.95	25377.94
834.13	26185.25
834.31	25726.58
834.49	25816.78
834.67	25766.72
834.86	25818.82
835.04	25739.77
835.22	25736.33
835.40	25641.88
835.58	25540.38
835.76	25606.82
835.95	25611.73
836.13	25475.17
836.31	25379.99
836.49	25570.86
836.67	25585.19
836.85	25459.12
837.03	25392.93
837.21	25423.89
837.40	25169.29
837.58	24951.47
837.76	25133.66
837.94	25034.78
838.12	25254.57
838.30	25002.75
838.48	24995.13
838.66	24958.10
838.85	24872.99
839.03	24910.18
839.21	24818.35
839.39	24838.58
839.57	24866.76
839.75	24786.07
839.93	24746.02
840.11	24753.39
840.29	24633.38
840.47	24741.67
840.66	24581.93
840.84	24592.99
841.02	24398.19
841.20	24488.87
841.38	24379.02
841.56	24399.25
841.74	24671.39
841.92	24361.33
842.10	24365.59
842.28	24483.06
842.46	24394.26
842.65	24281.29
842.83	24501.41
843.01	24540.15
843.19	24190.12
843.37	24368.86
843.55	24208.47
843.73	24375.42
843.91	24413.26
844.09	24252.37
844.27	24402.61
844.45	24129.74
844.63	24112.70
844.81	24061.75
844.99	24083.87
845.17	23930.92
845.35	24125.40
845.54	23943.46
845.72	23918.64
845.90	23890.46
846.08	23920.52
846.26	23640.03
846.44	23894.39
846.62	23547.14
846.80	23580.15
846.98	23582.52
847.16	23498.64
847.34	23599.81
847.52	23475.87
847.70	23429.58
847.88	23539.19
848.06	23407.46
848.24	23484.63
848.42	23478.81
848.60	23305.97
848.78	23442.28
848.96	23342.26
849.14	23313.99
849.32	23411.15
849.50	23140.57
849.68	23306.38
849.86	23251.49
850.04	23101.09
850.22	23110.67
850.40	22927.91
850.58	23137.46
850.76	23404.92
850.94	22749.25
851.12	23063.08
851.30	22903.50
851.48	23168.10
851.66	22818.39
851.84	22830.92
852.02	22838.37
852.20	22913.17
852.38	22613.75
852.56	22800.69
852.74	22706.98
852.92	22629.81
853.10	22501.11
853.28	22675.93
853.46	22234.88
853.64	22547.56
853.82	22308.69
854.00	22368.90
854.18	22176.80
854.36	22162.30
854.54	22322.86
854.72	22124.94
854.90	22059.49
855.07	22249.62
855.25	22200.88
855.43	22280.34
855.61	22181.22
855.79	22072.68
855.97	22156.32
856.15	22095.04
856.33	21974.30
856.51	22233.08
856.69	21886.64
856.87	22155.25
857.05	21998.22
857.23	22032.95
857.41	21888.94
857.59	21930.22
857.77	21836.18
857.94	21861.17
858.12	21934.07
858.30	21758.85
858.48	21685.86
858.66	21640.72
858.84	21774.90
859.02	21492.86
859.20	21483.27
859.38	21713.38
859.56	21605.01
859.74	21497.53
859.92	21565.60
860.09	21359.99
860.27	21531.93
860.45	21242.27
860.63	21290.19
860.81	21465.09
860.99	21302.40
861.17	21103.91
861.35	20731.75
861.53	20669.25
861.70	20577.99
861.88	21015.19
862.06	21013.88
862.24	20638.45
862.42	20648.44
862.60	20895.59
862.78	20902.22
862.96	20966.45
863.14	20771.97
863.31	20787.62
863.49	20646.23
863.67	20650.73
863.85	20650.24
864.03	20709.14
864.21	20695.95
864.39	20699.97
864.56	20529.99
864.74	20669.08
864.92	20444.13
865.10	20414.15
865.28	20518.35
865.46	20635.74
865.64	20281.94
865.81	20504.59
865.99	20214.52
866.17	20510.65
866.35	20409.32
866.53	20341.24
866.71	20322.08
866.88	20288.82
867.06	20131.61
867.24	20174.54
867.42	20001.53
867.60	20089.26
867.78	19887.66
867.95	20205.26
868.13	19842.85
868.31	20088.69
868.49	19997.76
868.67	19836.95
868.84	19786.25
869.02	19906.58
869.20	19517.96
869.38	19812.95
869.56	19627.24
869.73	19584.81
869.91	19706.70
870.09	19665.58
870.27	19518.37
870.45	19586.86
870.62	19391.48
870.80	19602.91
870.98	19446.77
871.16	19487.90
871.34	19385.01
871.51	19434.16
871.69	19231.57
871.87	19321.44
872.05	19228.95
872.23	19200.12
872.40	19035.05
872.58	19141.46
872.76	18985.16
872.94	18906.60
873.11	18982.05
873.29	18792.00
873.47	18902.10
873.65	18890.14
873.83	18883.34
874.00	18867.85
874.18	18949.20
874.36	18871.21
874.54	18920.77
874.71	18803.79
874.89	18690.25
875.07	18795.52
875.25	18715.65
875.42	18667.32
875.60	18651.02
875.78	18788.72
875.96	18506.84
876.13	18711.23
876.31	18407.31
876.49	18474.15
876.66	18343.74
876.84	18610.14
877.02	18414.68
877.20	18403.87
877.37	18414.93
877.55	18380.93
877.73	18313.02
877.91	18262.80
878.08	18392.48
878.26	18373.72
878.44	18272.47
878.61	18346.11
878.79	18207.67
878.97	18248.96
879.15	18371.92
879.32	18281.64
879.50	18220.70
879.68	18334.89
879.85	18148.69
880.03	18343.33
880.21	18172.86
880.38	18273.04
880.56	18159.75
880.74	18291.64
880.92	18104.37
881.09	18193.01
881.27	18130.83
881.45	18130.09
881.62	18077.42
881.80	18015.98
881.98	17896.54
882.15	18079.22
882.33	17928.57
882.51	17943.97
882.68	17814.13
882.86	18048.75
883.04	17781.37
883.21	17827.57
883.39	17978.63
883.57	17846.49
883.74	17849.52
883.92	17873.77
884.10	17875.33
884.27	17889.09
884.45	17798.73
884.63	17946.27
884.80	17909.65
884.98	17928.41
885.16	17868.04
885.33	17868.61
885.51	17865.25
885.69	17829.94
885.86	17756.13
886.04	17859.27
886.21	17602.46
886.39	17846.41
886.57	17547.49
886.74	17774.98
886.92	17730.90
887.10	17750.65
887.27	17708.54
887.45	17669.14
887.62	17681.83
887.80	17712.31
887.98	17853.54
888.15	17824.46
888.33	17780.79
888.51	17905.80
888.68	17801.52
888.86	17803.16
889.03	17772.68
889.21	17834.12
889.39	17941.11
889.56	17872.13
889.74	17884.09
889.91	17914.40
890.09	17817.57
890.27	17879.26
890.44	17847.47
890.62	17918.25
890.79	17906.46
890.97	17959.70
891.14	17840.35
891.32	17898.59
891.50	17783.09
891.67	17885.81
891.85	17770.88
892.02	17741.88
892.20	17871.89
892.38	17786.53
892.55	17698.71
892.73	17796.11
892.90	17627.03
893.08	17667.42
893.25	17664.14
893.43	17875.49
893.60	17607.12
893.78	17731.15
893.96	17679.21
894.13	17721.07
894.31	17828.39
894.48	17703.22
894.66	17772.11
894.83	17758.84
895.01	17799.22
895.18	17761.30
895.36	17746.88
895.53	17878.36
895.71	17725.66
895.89	17791.85
896.06	17622.20
896.24	17685.85
896.41	17673.23
896.59	17693.71
896.76	17416.01
896.94	17607.78
897.11	17652.59
897.29	17657.01
897.46	17457.21
897.64	17541.10
897.81	17469.99
897.99	17301.49
898.16	17614.74
898.34	17524.80
898.51	17494.49
898.69	17375.87
898.86	17427.23
899.04	17479.50
899.21	17401.02
899.39	17454.43
899.56	17311.81
899.74	17553.47
899.91	17369.15
900.09	17300.26
900.26	17338.76
900.44	17170.09
900.61	17218.01
900.79	17326.06
900.96	17155.26
901.14	17198.35
901.31	17145.76
901.49	17067.03
901.66	17135.85
901.84	17121.43
902.01	17017.39
902.19	17103.57
902.36	16937.85
902.54	16947.02
902.71	16947.92
902.88	17004.45
903.06	16819.15
903.23	17042.87
903.41	16849.13
903.58	16825.21
903.76	16714.29
903.93	16808.50
904.11	16877.15
904.28	16735.67
904.45	16745.34
904.63	16729.69
904.80	16622.87
904.98	16689.47
905.15	16545.70
905.33	16651.05
905.50	16496.55
905.68	16577.49
905.85	16517.93
906.02	16513.35
906.20	16579.45
906.37	16393.33
906.55	16346.89
906.72	16501.14
906.90	16217.05
907.07	16139.88
907.24	16250.39
907.42	16089.17
907.59	16075.49
907.77	16057.39
907.94	16038.71
908.11	16064.35
908.29	16019.46
908.46	15952.69
908.64	15883.47
908.81	15879.62
908.98	15761.33
909.16	15870.45
909.33	15711.93
909.51	15678.92
909.68	15671.14
909.85	15639.52
910.03	15599.79
910.20	15482.23
910.37	15487.23
910.55	15440.21
910.72	15342.40
910.90	15260.73
911.07	15207.31
911.24	15135.06
911.42	15305.86
911.59	15058.30
911.76	15137.60
911.94	15004.57
912.11	14933.87
912.29	15015.38
912.46	14848.43
912.63	14931.90
912.81	14794.69
912.98	14906.02
913.15	14746.60
913.33	14816.64
913.50	14801.49
913.67	14704.42
913.85	14742.26
914.02	14753.89
914.19	14690.57
914.37	14640.36
914.54	14661.90
914.71	14552.13
914.89	14572.94
915.06	14516.25
915.23	14439.41
915.41	14348.15
915.58	14345.53
915.75	14285.81
915.93	14264.92
916.10	14197.01
916.27	14147.53
916.45	14208.64
916.62	14081.01
916.79	14116.16
916.97	14049.56
917.14	14002.54
917.31	13934.54
917.49	13932.50
917.66	13879.99
917.83	13821.09
918.00	13788.48
918.18	13743.84
918.35	13698.86
918.52	13758.75
918.70	13586.63
918.87	13579.34
919.04	13560.50
919.21	13519.71
919.39	13427.63
919.56	13487.51
919.73	13350.79
919.91	13423.94
920.08	13407.15
920.25	13284.52
920.42	13436.15
920.60	13265.19
920.77	13166.80
920.94	13199.08
921.11	13057.77
921.29	13193.10
921.46	12945.95
921.63	13103.97
921.81	12979.21
921.98	13015.25
922.15	12971.67
922.32	13007.47
922.50	12910.64
922.67	12863.62
922.84	12864.03
923.01	12703.88
923.19	12686.76
923.36	12691.43
923.53	12474.26
923.70	12557.73
923.87	12542.66
924.05	12548.72
924.22	12377.19
924.39	12473.52
924.56	12337.37
924.74	12384.97
924.91	12371.86
925.08	12310.50
925.25	12278.47
925.43	12258.32
925.60	12188.45
925.77	12293.38
925.94	12228.75
926.11	12167.97
926.29	12089.00
926.46	12129.30
926.63	12076.71
926.80	12089.57
926.97	11968.08
927.15	12004.78
927.32	11870.11
927.49	11848.65
927.66	11819.73
927.83	11873.06
928.01	11769.27
928.18	11709.30
928.35	11597.73
928.52	11692.02
928.69	11524.58
928.87	11515.65
929.04	11505.16
929.21	11549.89
929.38	11447.98
929.55	11497.30
929.72	11372.53
929.90	11374.58
930.07	11344.85
930.24	11262.03
930.41	11248.59
930.58	11237.04
930.75	11200.10
930.93	11134.72
931.10	11126.12
931.27	11045.76
931.44	11020.45
931.61	10978.42
931.78	10995.38
931.95	10973.34
932.13	10881.19
932.30	10985.06
932.47	10847.76
932.64	10939.92
932.81	10861.53
932.98	10814.34
933.15	10826.55
933.33	10722.67
933.50	10773.87
933.67	10684.01
933.84	10674.26
934.01	10647.55
934.18	10639.44
934.35	10571.45
934.52	10548.35
934.70	10549.50
934.87	10505.59
935.04	10444.48
935.21	10467.33
935.38	10425.55
935.55	10343.80
935.72	10375.09
935.89	10293.17
936.06	10351.09
936.24	10221.25
936.41	10307.26
936.58	10215.60
936.75	10220.18
936.92	10178.57
937.09	10233.04
937.26	10134.50
937.43	10124.67
937.60	10097.88
937.77	10078.63
937.94	10061.75
938.12	10062.65
938.29	9964.19
938.46	10027.02
938.63	9931.67
938.80	9945.92
938.97	9904.55
939.14	9877.84
939.31	9821.65
939.48	9818.62
939.65	9751.94
939.82	9750.71
939.99	9731.62
940.16	9718.02
940.33	9671.33
940.50	9616.20
940.67	9623.24
940.85	9620.95
941.02	9576.63
941.19	9602.19
941.36	9515.03
941.53	9550.42
941.70	9529.94
941.87	9453.10
942.04	9484.63
942.21	9457.52
942.38	9419.10
942.55	9367.82
942.72	9399.93
942.89	9373.23
943.06	9308.67
943.23	9288.52
943.40	9233.64
943.57	9247.32
943.74	9248.63
943.91	9175.06
944.08	9165.64
944.25	9232.82
944.42	9117.31
944.59	9086.18
944.76	9124.36
944.93	9095.68
945.10	9068.65
945.27	9052.51
945.44	8951.92
945.61	8970.10
945.78	8915.95
945.95	8910.14
946.12	8811.59
946.29	8868.69
946.46	8810.12
946.63	8837.56
946.80	8798.57
946.97	8792.34
947.14	8718.28
947.31	8782.75
947.48	8708.37
947.65	8695.43
947.82	8687.57
947.99	8720.01
948.16	8582.87
948.33	8681.26
948.50	8551.17
948.67	8582.79
948.84	8549.37
949.01	8508.00
949.18	8485.06
949.35	8525.86
949.52	8402.00
949.68	8421.90
949.85	8427.56
950.02	8422.48
950.19	8403.63
950.36	8360.22
950.53	8359.81
950.70	8313.69
950.87	8265.44
951.04	8359.07
951.21	8292.55
951.38	8245.86
951.55	8210.88
951.72	8199.25
951.89	8162.38
952.06	8166.40
952.23	8143.30
952.39	8138.87
952.56	8063.59
952.73	8139.37
952.90	8044.50
953.07	8098.90
953.24	7991.83
953.41	8031.23
953.58	7947.43
953.75	8009.85
953.92	7908.52
954.09	7889.27
954.25	7828.07
954.42	7866.82
954.59	7857.73
954.76	7793.01
954.93	7774.58
955.10	7828.57
955.27	7739.77
955.44	7778.10
955.61	7734.19
955.77	7793.50
955.94	7704.38
956.11	7779.91
956.28	7735.01
956.45	7716.91
956.62	7728.38
956.79	7729.77
956.96	7687.01
957.12	7703.64
957.29	7626.39
957.46	7629.42
957.63	7547.67
957.80	7562.90
957.97	7543.82
958.14	7581.17
958.30	7473.37
958.47	7500.15
958.64	7461.32
958.81	7509.66
958.98	7423.48
959.15	7415.20
959.32	7437.89
959.48	7411.35
959.65	7356.96
959.82	7363.68
959.99	7296.83
960.16	7328.86
960.33	7350.00
960.49	7332.55
960.66	7263.98
960.83	7309.94
961.00	7252.10
961.17	7243.50
961.33	7225.40
961.50	7197.14
961.67	7167.81
961.84	7202.54
962.01	7140.45
962.18	7165.51
962.34	7119.64
962.51	7093.26
962.68	7025.68
962.85	7124.88
963.02	6990.45
963.18	7058.28
963.35	6992.17
963.52	7005.20
963.69	6990.13
963.86	6984.47
964.02	6935.98
964.19	6952.44
964.36	6912.47
964.53	6935.81
964.69	6852.18
964.86	6929.18
965.03	6826.29
965.20	6859.47
965.37	6766.82
965.53	6805.24
965.70	6741.75
965.87	6783.86
966.04	6778.29
966.20	6747.81
966.37	6705.79
966.54	6675.07
966.71	6712.01
966.87	6687.52
967.04	6655.57
967.21	6672.45
967.38	6629.19
967.54	6606.26
967.71	6632.88
967.88	6608.71
968.05	6579.63
968.21	6537.12
968.38	6511.39
968.55	6540.56
968.72	6507.22
968.88	6446.43
969.05	6501.07
969.22	6441.19
969.39	6436.44
969.55	6470.60
969.72	6420.38
969.89	6428.16
970.05	6448.56
970.22	6413.09
970.39	6414.98
970.56	6429.23
970.72	6361.48
970.89	6409.57
971.06	6332.16
971.22	6343.79
971.39	6339.45
971.56	6341.66
971.73	6256.05
971.89	6320.60
972.06	6266.62
972.23	6278.33
972.39	6222.47
972.56	6233.12
972.73	6166.35
972.89	6222.88
973.06	6215.01
973.23	6190.11
973.39	6141.45
973.56	6161.19
973.73	6132.36
973.89	6181.83
974.06	6084.35
974.23	6107.53
974.39	6091.15
974.56	6091.81
974.73	6043.06
974.89	6060.35
975.06	6024.47
975.23	6084.76
975.39	5973.60
975.56	6022.17
975.73	6002.19
975.89	5961.06
976.06	5975.48
976.23	5921.01
976.39	5947.71
976.56	5926.25
976.73	5898.56
976.89	5889.47
977.06	5868.82
977.23	5855.31
977.39	5846.46
977.56	5885.45
977.72	5820.16
977.89	5863.50
978.06	5820.74
978.22	5808.61
978.39	5806.97
978.56	5785.10
978.72	5763.80
978.89	5771.42
979.05	5738.00
979.22	5746.11
979.39	5714.65
979.55	5693.60
979.72	5659.44
979.88	5701.79
980.05	5655.10
980.22	5666.24
980.38	5646.50
980.55	5607.09
980.71	5607.42
980.88	5640.60
981.05	5622.66
981.21	5584.65
981.38	5562.69
981.54	5584.57
981.71	5551.80
981.88	5544.02
982.04	5521.00
982.21	5536.15
982.37	5499.62
982.54	5538.04
982.70	5498.63
982.87	5515.59
983.04	5465.54
983.20	5512.97
983.37	5458.90
983.53	5468.98
983.70	5448.74
983.86	5450.30
984.03	5421.14
984.20	5439.73
984.36	5414.50
984.53	5435.15
984.69	5364.53
984.86	5350.44
985.02	5370.68
985.19	5352.82
985.35	5316.77
985.52	5323.74
985.68	5289.66
985.85	5303.17
986.02	5291.95
986.18	5290.80
986.35	5278.19
986.51	5294.00
986.68	5268.77
986.84	5233.38
987.01	5231.99
987.17	5263.61
987.34	5232.31
987.50	5219.45
987.67	5181.36
987.83	5219.54
988.00	5174.73
988.16	5190.95
988.33	5174.48
988.49	5181.52
988.66	5125.57
988.82	5134.75
988.99	5122.95
989.15	5143.43
989.32	5098.38
989.48	5118.45
989.65	5059.96
989.81	5081.09
989.98	5046.44
990.14	5053.81
990.31	5074.95
990.47	5061.19
990.64	5042.02
990.80	5022.19
990.97	5008.59
991.13	5017.77
991.30	4994.26
991.46	4974.76
991.63	4975.58
991.79	4980.91
991.95	4908.41
992.12	4962.39
992.28	4894.97
992.45	4908.49
992.61	4921.11
992.78	4893.66
992.94	4865.48
993.11	4922.09
993.27	4867.20
993.44	4861.30
993.60	4849.51
993.76	4851.31
993.93	4863.43
994.09	4877.44
994.26	4836.81
994.42	4835.99
994.59	4811.42
994.75	4836.97
994.91	4813.79
995.08	4792.33
995.24	4783.97
995.41	4785.61
995.57	4783.56
995.74	4753.17
995.90	4765.46
996.06	4758.58
996.23	4736.21
996.39	4736.71
996.56	4722.04
996.72	4734.74
996.88	4727.12
997.05	4710.90
997.21	4694.60
997.38	4720.49
997.54	4686.08
997.70	4689.77
997.87	4677.31
998.03	4686.65
998.20	4629.39
998.36	4627.10
998.52	4622.43
998.69	4643.73
998.85	4602.11
999.02	4624.31
999.18	4597.53
999.34	4621.86
999.51	4616.61
999.67	4598.51
999.83	4582.45
1000.00	4568.20
1000.16	4564.35
1000.33	4561.40
1000.49	4528.71
1000.65	4559.93
1000.82	4554.52
1000.98	4516.26
1001.14	4507.09
1001.31	4526.58
1001.47	4504.47
1001.63	4504.96
1001.80	4487.75
1001.96	4457.44
1002.12	4450.97
1002.29	4469.08
1002.45	4429.76
1002.61	4456.79
1002.78	4449.17
1002.94	4442.21
1003.10	4411.16
1003.27	4428.04
1003.43	4399.12
1003.59	4411.73
1003.76	4387.65
1003.92	4399.77
1004.08	4410.34
1004.25	4408.54
1004.41	4371.35
1004.57	4377.57
1004.74	4374.38
1004.90	4385.19
1005.06	4341.37
1005.23	4360.04
1005.39	4348.74
1005.55	4360.54
1005.71	4344.56
1005.88	4317.94
1006.04	4312.04
1006.20	4335.39
1006.37	4300.49
1006.53	4277.63
1006.69	4298.69
1006.85	4302.37
1007.02	4274.68
1007.18	4270.34
1007.34	4270.18
1007.51	4266.33
1007.67	4240.20
1007.83	4268.05
1007.99	4229.22
1008.16	4227.01
1008.32	4230.20
1008.48	4248.06
1008.64	4208.99
1008.81	4233.48
1008.97	4201.37
1009.13	4200.63
1009.29	4218.24
1009.46	4192.93
1009.62	4180.97
1009.78	4189.98
1009.95	4191.54
1010.11	4171.79
1010.27	4158.52
1010.43	4161.72
1010.59	4151.15
1010.76	4140.50
1010.92	4133.70
1011.08	4139.19
1011.24	4121.00
1011.41	4143.78
1011.57	4095.86
1011.73	4115.02
1011.89	4077.26
1012.06	4129.03
1012.22	4066.28
1012.38	4064.81
1012.54	4071.53
1012.70	4055.31
1012.87	4050.72
1013.03	4061.12
1013.19	4056.29
1013.35	4057.68
1013.51	4015.58
1013.68	4051.21
1013.84	4027.45
1014.00	4035.48
1014.16	4015.82
1014.32	4004.52
1014.49	4002.88
1014.65	4031.39
1014.81	3974.53
1014.97	3985.92
1015.13	3990.51
1015.30	3981.50
1015.46	3976.83
1015.62	3992.47
1015.78	3974.12
1015.94	3948.16
1016.10	3948.81
1016.27	3950.45
1016.43	3937.83
1016.59	3960.53
1016.75	3950.61
1016.91	3940.21
1017.07	3915.72
1017.24	3942.26
1017.40	3912.19
1017.56	3916.62
1017.72	3893.43
1017.88	3907.20
1018.04	3886.88
1018.21	3889.99
1018.37	3872.79
1018.53	3877.95
1018.69	3890.08
1018.85	3887.13
1019.01	3856.00
1019.17	3857.55
1019.34	3861.32
1019.50	3855.26
1019.66	3841.74
1019.82	3847.31
1019.98	3817.25
1020.14	3854.69
1020.30	3834.45
1020.46	3848.62
1020.63	3809.14
1020.79	3828.23
1020.95	3807.91
1021.11	3838.14
1021.27	3800.87
1021.43	3812.91
1021.59	3823.72
1021.75	3805.95
1021.91	3764.66
1022.07	3794.23
1022.24	3761.14
1022.40	3766.05
1022.56	3751.88
1022.72	3797.51
1022.88	3744.42
1023.04	3770.80
1023.20	3737.38
1023.36	3762.12
1023.52	3743.03
1023.68	3744.18
1023.84	3735.90
1024.01	3743.60
1024.17	3729.92
1024.33	3726.16
1024.49	3719.36
1024.65	3716.65
1024.81	3727.47
1024.97	3724.27
1025.13	3717.47
1025.29	3712.39
1025.45	3687.08
1025.61	3732.22
1025.77	3697.24
1025.93	3704.28
1026.09	3677.58
1026.25	3691.75
1026.41	3667.99
1026.57	3676.27
1026.73	3703.22
1026.90	3678.97
1027.06	3658.41
1027.22	3670.04
1027.38	3668.49
1027.54	3676.76
1027.70	3675.53
1027.86	3665.78
1028.02	3650.30
1028.18	3678.32
1028.34	3624.09
1028.50	3673.24
1028.66	3635.72
1028.82	3668.98
1028.98	3632.11
1029.14	3618.35
1029.30	3634.49
1029.46	3652.43
1029.62	3628.43
1029.78	3603.03
1029.94	3610.73
1030.10	3621.14
1030.26	3588.21
1030.42	3607.87
1030.58	3586.08
1030.74	3610.73
1030.90	3581.65
1031.06	3591.81
1031.22	3572.07
1031.38	3595.33
1031.54	3574.20
1031.70	3590.01
1031.86	3573.21
1032.02	3567.89
1032.18	3550.69
1032.34	3583.29
1032.50	3562.81
1032.66	3577.39
1032.82	3534.22
1032.98	3574.44
1033.14	3551.10
1033.30	3582.14
1033.45	3547.33
1033.61	3577.31
1033.77	3537.01
1033.93	3558.63
1034.09	3519.72
1034.25	3532.09
1034.41	3527.91
1034.57	3542.99
1034.73	3543.64
1034.89	3538.97
1035.05	3514.23
1035.21	3513.58
1035.37	3502.35
1035.53	3493.59
1035.69	3489.41
1035.85	3525.70
1036.01	3482.86
1036.16	3518.08
1036.32	3498.83
1036.48	3502.03
1036.64	3486.71
1036.80	3509.32
1036.96	3483.92
1037.12	3486.46
1037.28	3475.89
1037.44	3478.27
1037.60	3482.12
1037.76	3465.98
1037.91	3450.99
1038.07	3471.23
1038.23	3475.57
1038.39	3473.76
1038.55	3469.50
1038.71	3471.31
1038.87	3456.56
1039.03	3479.09
1039.19	3471.96
1039.35	3457.71
1039.50	3468.52
1039.66	3463.85
1039.82	3448.29
1039.98	3440.59
1040.14	3452.96
1040.30	3460.58
1040.46	3412.98
1040.62	3444.44
1040.77	3435.02
1040.93	3448.53
1041.09	3412.49
1041.25	3430.35
1041.41	3416.75
1041.57	3434.28
1041.73	3434.28
1041.88	3434.28

