SpectraSuite Data File
++++++++++++++++++++++++++++++++++++
Date: Tue Sep 20 12:11:43 EDT 2022
User: Laboratoire
Dark Spectrum Present: No
Reference Spectrum Present: No
Number of Sampled Component Spectra: 1
Spectrometers: FLMT00174
Integration Time (usec): 15000 (FLMT00174)
Spectra Averaged: 25 (FLMT00174)
Boxcar Smoothing: 0 (FLMT00174)
Correct for Electrical Dark: No (FLMT00174)
Strobe/Lamp Enabled: No (FLMT00174)
Correct for Detector Non-linearity: No (FLMT00174)
Correct for Stray Light: No (FLMT00174)
Number of Pixels in Processed Spectrum: 3648
>>>>>Begin Processed Spectral Data<<<<<
345.74	3172.14
345.96	3172.14
346.18	3172.14
346.39	3173.94
346.61	3210.97
346.83	3210.23
347.05	3215.39
347.27	3224.73
347.49	3199.66
347.71	3224.08
347.93	3224.40
348.15	3239.31
348.36	3214.08
348.58	3222.19
348.80	3205.64
349.02	3221.21
349.24	3223.50
349.46	3319.10
349.68	3329.67
349.90	3342.94
350.11	3313.53
350.33	3332.78
350.55	3321.72
350.77	3324.67
350.99	3325.57
351.21	3334.09
351.43	3315.33
351.65	3327.95
351.86	3319.51
352.08	3331.80
352.30	3315.01
352.52	3340.32
352.74	3309.52
352.96	3325.90
353.18	3328.19
353.39	3342.37
353.61	3319.27
353.83	3331.72
354.05	3367.52
354.27	3352.52
354.49	3326.72
354.70	3339.66
354.92	3321.48
355.14	3313.12
355.36	3315.01
355.58	3331.64
355.80	3334.58
356.02	3341.06
356.23	3314.43
356.45	3336.80
356.67	3343.76
356.89	3366.78
357.11	3331.64
357.33	3363.42
357.54	3325.74
357.76	3329.10
357.98	3337.53
358.20	3341.22
358.42	3316.97
358.63	3329.10
358.85	3340.07
359.07	3342.94
359.29	3315.33
359.51	3331.47
359.73	3325.16
359.94	3335.08
360.16	3325.33
360.38	3349.33
360.60	3323.12
360.82	3339.50
361.03	3341.63
361.25	3340.40
361.47	3358.26
361.69	3363.34
361.91	3342.86
362.12	3355.23
362.34	3334.18
362.56	3338.27
362.78	3339.34
363.00	3347.45
363.21	3319.35
363.43	3350.07
363.65	3331.31
363.87	3354.33
364.09	3350.64
364.30	3348.43
364.52	3317.63
364.74	3350.07
364.96	3337.94
365.17	3349.08
365.39	3346.05
365.61	3334.99
365.83	3335.57
366.05	3331.23
366.26	3341.22
366.48	3357.93
366.70	3350.80
366.92	3339.75
367.13	3338.35
367.35	3348.02
367.57	3362.27
367.79	3342.45
368.01	3334.50
368.22	3354.16
368.44	3356.78
368.66	3365.47
368.88	3352.36
369.09	3353.02
369.31	3333.77
369.53	3345.64
369.75	3344.09
369.96	3362.27
370.18	3346.46
370.40	3360.14
370.62	3365.96
370.83	3357.44
371.05	3351.30
371.27	3375.95
371.49	3341.88
371.70	3354.41
371.92	3344.01
372.14	3364.24
372.36	3335.65
372.57	3374.40
372.79	3359.73
373.01	3360.72
373.22	3357.44
373.44	3359.65
373.66	3348.35
373.88	3365.55
374.09	3354.98
374.31	3360.31
374.53	3353.67
374.75	3363.09
374.96	3366.04
375.18	3373.91
375.40	3365.14
375.61	3363.09
375.83	3360.63
376.05	3359.98
376.27	3362.27
376.48	3376.36
376.70	3384.56
376.92	3373.82
377.13	3349.58
377.35	3372.19
377.57	3359.08
377.79	3370.96
378.00	3381.52
378.22	3376.61
378.44	3361.86
378.65	3392.67
378.87	3377.59
379.09	3401.76
379.30	3379.72
379.52	3364.81
379.74	3375.38
379.96	3386.44
380.17	3375.30
380.39	3376.04
380.61	3380.13
380.82	3389.88
381.04	3372.76
381.26	3401.43
381.47	3412.41
381.69	3412.98
381.91	3408.56
382.12	3420.52
382.34	3419.12
382.56	3420.68
382.77	3399.96
382.99	3423.71
383.21	3388.73
383.42	3425.68
383.64	3414.70
383.86	3399.22
384.07	3433.38
384.29	3406.35
384.51	3416.01
384.72	3418.14
384.94	3398.97
385.16	3434.69
385.37	3431.82
385.59	3418.96
385.81	3442.72
386.02	3411.59
386.24	3448.37
386.46	3431.33
386.67	3431.49
386.89	3462.46
387.11	3466.23
387.32	3461.23
387.54	3446.08
387.76	3458.12
387.97	3452.55
388.19	3463.20
388.40	3458.12
388.62	3449.76
388.84	3485.81
389.05	3461.89
389.27	3473.60
389.49	3482.69
389.70	3458.28
389.92	3480.89
390.14	3481.96
390.35	3503.17
390.57	3498.42
390.78	3465.25
391.00	3482.45
391.22	3485.40
391.43	3493.43
391.65	3516.94
391.86	3520.05
392.08	3538.15
392.30	3495.15
392.51	3535.04
392.73	3559.70
392.95	3515.54
393.16	3513.33
393.38	3554.95
393.59	3513.99
393.81	3552.16
394.03	3552.73
394.24	3549.38
394.46	3547.90
394.67	3564.20
394.89	3557.81
395.11	3573.62
395.32	3575.59
395.54	3592.46
395.75	3563.06
395.97	3574.52
396.19	3560.84
396.40	3601.56
396.62	3587.30
396.83	3600.49
397.05	3599.35
397.26	3604.34
397.48	3601.89
397.70	3620.40
397.91	3639.73
398.13	3621.46
398.34	3632.52
398.56	3656.85
398.78	3632.69
398.99	3667.99
399.21	3645.22
399.42	3668.65
399.64	3647.60
399.85	3643.75
400.07	3672.83
400.29	3684.62
400.50	3679.22
400.72	3701.50
400.93	3695.19
401.15	3701.09
401.36	3713.54
401.58	3733.04
401.79	3715.92
402.01	3739.10
402.23	3720.34
402.44	3754.91
402.66	3751.22
402.87	3759.17
403.09	3741.88
403.30	3774.08
403.52	3752.45
403.73	3753.27
403.95	3772.19
404.16	3796.36
404.38	3787.51
404.60	3782.68
404.81	3810.12
405.03	3826.26
405.24	3829.29
405.46	3827.90
405.67	3849.61
405.89	3841.74
406.10	3834.86
406.32	3864.76
406.53	3869.92
406.75	3886.23
406.96	3908.59
407.18	3900.64
407.39	3875.41
407.61	3913.91
407.82	3923.50
408.04	3924.97
408.25	3918.50
408.47	3928.58
408.68	3953.15
408.90	3942.59
409.12	3960.94
409.33	3985.67
409.55	3969.78
409.76	3984.94
409.98	3985.10
410.19	4008.53
410.41	4021.80
410.62	4034.17
410.84	3994.93
411.05	4041.79
411.27	4048.10
411.48	4057.03
411.70	4074.88
411.91	4075.38
412.12	4078.08
412.34	4066.04
412.55	4108.31
412.77	4105.36
412.98	4114.61
413.20	4126.08
413.41	4134.44
413.63	4136.08
413.84	4133.87
414.06	4168.76
414.27	4151.97
414.49	4190.23
414.70	4202.19
414.92	4209.89
415.13	4212.26
415.35	4229.38
415.56	4245.03
415.78	4232.91
415.99	4264.69
416.21	4272.06
416.42	4304.01
416.63	4282.96
416.85	4322.61
417.06	4317.45
417.28	4277.47
417.49	4362.75
417.71	4343.25
417.92	4336.70
418.14	4356.19
418.35	4387.73
418.57	4394.86
418.78	4395.19
418.99	4413.62
419.21	4415.26
419.42	4430.33
419.64	4439.91
419.85	4449.74
420.07	4494.39
420.28	4492.83
420.50	4484.23
420.71	4512.66
420.92	4506.51
421.14	4579.09
421.35	4531.66
421.57	4553.62
421.78	4566.64
422.00	4583.76
422.21	4608.91
422.42	4628.82
422.64	4613.91
422.85	4665.11
423.07	4684.20
423.28	4640.53
423.50	4697.55
423.71	4722.78
423.92	4756.78
424.14	4732.36
424.35	4724.34
424.57	4775.62
424.78	4796.83
424.99	4835.66
425.21	4814.61
425.42	4841.48
425.64	4825.42
425.85	4868.76
426.06	4874.66
426.28	4877.69
426.49	4966.57
426.71	4938.39
426.92	4925.20
427.13	4979.60
427.35	5022.77
427.56	5034.07
427.78	5042.10
427.99	5046.77
428.20	5085.52
428.42	5110.50
428.63	5103.95
428.84	5065.12
429.06	5132.29
429.27	5172.51
429.49	5165.55
429.70	5241.24
429.91	5188.57
430.13	5222.24
430.34	5256.32
430.56	5274.99
430.77	5294.16
430.98	5280.65
431.20	5370.92
431.41	5399.92
431.62	5394.02
431.84	5358.55
432.05	5409.26
432.26	5416.55
432.48	5386.90
432.69	5498.14
432.91	5492.65
433.12	5506.99
433.33	5533.45
433.55	5617.41
433.76	5604.72
433.97	5595.62
434.19	5605.86
434.40	5694.17
434.61	5687.95
434.83	5729.40
435.04	5688.27
435.25	5739.80
435.47	5740.05
435.68	5748.48
435.89	5826.14
436.11	5829.75
436.32	5858.67
436.53	5857.11
436.75	5875.87
436.96	5887.25
437.17	5861.29
437.39	5904.79
437.60	5955.58
437.81	5991.21
438.03	6032.25
438.24	6016.36
438.45	6110.07
438.67	6065.51
438.88	6126.13
439.09	6161.11
439.31	6174.46
439.52	6220.91
439.73	6196.50
439.94	6154.97
440.16	6260.56
440.37	6244.75
440.58	6304.63
440.80	6316.51
441.01	6271.62
441.22	6469.94
441.44	6410.72
441.65	6418.74
441.86	6454.46
442.08	6510.00
442.29	6446.35
442.50	6531.05
442.71	6491.57
442.93	6578.57
443.14	6563.41
443.35	6650.33
443.57	6570.70
443.78	6669.42
443.99	6713.41
444.20	6658.11
444.42	6779.60
444.63	6757.97
444.84	6788.28
445.06	6863.89
445.27	6777.38
445.48	6818.67
445.69	6881.99
445.91	6904.93
446.12	6893.63
446.33	6944.25
446.54	7069.01
446.76	6975.87
446.97	7035.92
447.18	7026.74
447.39	7082.45
447.61	7122.02
447.82	7161.58
448.03	7132.83
448.25	7203.28
448.46	7275.53
448.67	7317.97
448.88	7262.67
449.10	7372.93
449.31	7371.21
449.52	7345.57
449.73	7431.91
449.95	7522.35
450.16	7450.26
450.37	7582.97
450.58	7731.57
450.79	7560.85
451.01	7615.99
451.22	7566.92
451.43	7645.15
451.64	7761.23
451.86	7752.79
452.07	7748.45
452.28	7851.99
452.49	7976.43
452.71	7861.82
452.92	7876.98
453.13	7993.71
453.34	7995.76
453.55	8103.98
453.77	8177.70
453.98	8163.53
454.19	8125.52
454.40	8184.01
454.62	8277.32
454.83	8172.38
455.04	8339.82
455.25	8204.98
455.46	8558.71
455.68	8413.96
455.89	8414.69
456.10	8488.67
456.31	8539.95
456.52	8596.14
456.74	8567.14
456.95	8785.79
457.16	8677.49
457.37	8803.15
457.58	8769.98
457.80	8782.59
458.01	8793.08
458.22	9159.75
458.43	8955.85
458.64	9050.06
458.86	8940.20
459.07	9094.05
459.28	9060.95
459.49	9232.41
459.70	9389.36
459.91	9350.62
460.13	9317.77
460.34	9389.94
460.55	9358.40
460.76	9537.39
460.97	9580.23
461.19	9549.02
461.40	9814.03
461.61	9659.29
461.82	9754.48
462.03	9858.68
462.24	9789.54
462.46	9835.74
462.67	9911.92
462.88	10036.52
463.09	10023.00
463.30	10171.61
463.51	10085.84
463.72	10290.72
463.94	10359.36
464.15	10366.90
464.36	10253.36
464.57	10567.85
464.78	10581.44
464.99	10603.81
465.20	10575.14
465.42	10787.31
465.63	10798.78
465.84	10793.53
466.05	10914.61
466.26	10988.34
466.47	11110.31
466.68	11013.57
466.90	11236.47
467.11	11191.74
467.32	11352.63
467.53	11524.74
467.74	11303.97
467.95	11491.07
468.16	11676.70
468.37	11746.00
468.59	11761.73
468.80	11956.45
469.01	11787.78
469.22	12025.75
469.43	12308.37
469.64	12127.42
469.85	12319.35
470.06	12392.91
470.28	12547.99
470.49	12344.99
470.70	12565.19
470.91	12818.97
471.12	12655.71
471.33	13017.38
471.54	12877.55
471.75	12946.28
471.96	13285.17
472.17	13260.27
472.39	13595.40
472.60	13281.98
472.81	13654.95
473.02	13557.23
473.23	13816.91
473.44	13934.63
473.65	13876.05
473.86	14028.18
474.07	14098.22
474.28	14223.22
474.49	14602.67
474.71	14538.78
474.92	14708.35
475.13	14634.38
475.34	14793.30
475.55	14890.04
475.76	14989.41
475.97	15365.50
476.18	15280.39
476.39	15533.68
476.60	15719.96
476.81	15720.86
477.02	15955.81
477.23	15965.06
477.44	15973.83
477.65	16265.13
477.87	16446.50
478.08	16567.41
478.29	16609.68
478.50	16940.06
478.71	16865.19
478.92	17027.47
479.13	17108.32
479.34	17247.83
479.55	17423.63
479.76	17427.80
479.97	17535.28
480.18	18010.16
480.39	17775.39
480.60	18187.19
480.81	18237.98
481.02	18356.85
481.23	18421.48
481.44	18776.68
481.65	18921.35
481.86	19221.42
482.07	18836.40
482.28	19668.53
482.49	19407.45
482.71	19603.48
482.92	19721.28
483.13	20009.39
483.34	19939.11
483.55	20085.17
483.76	20149.06
483.97	20489.60
484.18	20552.92
484.39	20792.29
484.60	20703.24
484.81	21192.71
485.02	21075.65
485.23	21470.41
485.44	21560.11
485.65	21760.24
485.86	21610.99
486.07	21987.16
486.28	22073.09
486.49	22320.81
486.70	22466.46
486.91	22726.15
487.12	22605.72
487.33	22629.73
487.54	23187.27
487.75	23201.36
487.96	23259.60
488.17	23266.56
488.38	23617.75
488.59	23711.22
488.80	23896.35
489.01	23948.13
489.22	24318.89
489.43	24266.63
489.64	24168.08
489.85	24758.55
490.06	24408.26
490.26	24916.16
490.47	24871.84
490.68	25243.18
490.89	25519.41
491.10	25210.25
491.31	25562.83
491.52	25885.34
491.73	25752.31
491.94	25807.60
492.15	26091.37
492.36	26352.20
492.57	26362.68
492.78	26377.84
492.99	26584.03
493.20	26891.55
493.41	26864.43
493.62	27054.73
493.83	27087.58
494.04	27293.69
494.25	27551.16
494.46	27576.23
494.67	27526.91
494.88	27762.10
495.08	27896.53
495.29	28074.70
495.50	28319.15
495.71	28259.76
495.92	28558.02
496.13	28611.02
496.34	28591.69
496.55	28733.49
496.76	29219.35
496.97	28757.66
497.18	29210.10
497.39	29197.07
497.60	29777.30
497.81	29359.35
498.02	29723.56
498.22	29412.44
498.43	30027.73
498.64	30145.61
498.85	30079.42
499.06	30171.74
499.27	30665.55
499.48	29999.71
499.69	30439.04
499.90	30640.81
500.11	30908.76
500.32	31304.59
500.52	30908.76
500.73	31485.06
500.94	31460.40
501.15	31550.19
501.36	31644.07
501.57	31478.92
501.78	31742.20
501.99	32001.72
502.20	32017.37
502.41	32047.60
502.61	32063.57
502.82	32525.51
503.03	32227.25
503.24	32768.65
503.45	32507.65
503.66	33026.04
503.87	32904.06
504.08	33249.92
504.28	33067.57
504.49	33263.27
504.70	33317.42
504.91	33648.45
505.12	33344.62
505.33	34002.10
505.54	33970.07
505.75	34038.39
505.95	34244.09
506.16	34122.76
506.37	34007.75
506.58	34668.51
506.79	34220.00
507.00	34775.16
507.21	34522.12
507.41	34590.77
507.62	34772.13
507.83	35353.10
508.04	34941.79
508.25	35448.78
508.46	35171.73
508.67	35778.92
508.87	35473.85
509.08	36033.35
509.29	35833.88
509.50	35983.71
509.71	36131.82
509.92	36203.83
510.12	36060.31
510.33	36306.96
510.54	36253.47
510.75	36490.71
510.96	36619.81
511.17	36913.98
511.37	36828.62
511.58	37106.41
511.79	36854.18
512.00	36871.63
512.21	37316.20
512.42	37350.03
512.62	37605.05
512.83	37811.24
513.04	37670.17
513.25	38138.18
513.46	37340.20
513.66	38451.68
513.87	38030.86
514.08	38505.25
514.29	38180.69
514.50	38298.98
514.71	38761.25
514.91	38425.46
515.12	38534.42
515.33	38899.12
515.54	38799.91
515.75	39288.97
515.95	39046.16
516.16	39087.70
516.37	39552.50
516.58	39628.44
516.78	39363.02
516.99	39672.19
517.20	39691.19
517.41	39770.65
517.62	40045.33
517.82	39933.75
518.03	40469.99
518.24	40805.86
518.45	40127.90
518.66	40640.71
518.86	40481.30
519.07	40991.24
519.28	40286.90
519.49	41081.27
519.69	41115.84
519.90	41221.92
520.11	41490.29
520.32	41268.13
520.52	41804.20
520.73	41373.97
520.94	41972.96
521.15	41871.79
521.36	41426.72
521.56	42290.47
521.77	41678.46
521.98	42380.50
522.19	41878.26
522.39	42350.60
522.60	42223.46
522.81	42530.25
523.02	42146.05
523.22	42689.83
523.43	42994.24
523.64	42795.26
523.84	42999.56
524.05	43403.99
524.26	43288.24
524.47	43029.30
524.67	43194.20
524.88	43475.51
525.09	43888.46
525.30	43554.72
525.50	43572.91
525.71	43716.68
525.92	43898.62
526.13	44344.09
526.33	44106.37
526.54	43844.64
526.75	44209.42
526.95	44602.06
527.16	43784.51
527.37	44512.76
527.58	44651.37
527.78	44659.24
527.99	44889.18
528.20	45234.80
528.40	44874.68
528.61	44615.08
528.82	45236.68
529.03	44946.61
529.23	45052.61
529.44	45482.27
529.65	45488.50
529.85	45524.63
530.06	45465.15
530.27	45682.73
530.47	45297.79
530.68	46202.99
530.89	45424.36
531.09	46129.19
531.30	45905.14
531.51	45643.08
531.72	46298.35
531.92	46217.00
532.13	46700.40
532.34	46393.70
532.54	46497.33
532.75	46717.61
532.96	46555.74
533.16	46881.28
533.37	47198.39
533.58	46827.22
533.78	47221.82
533.99	47252.05
534.20	46762.91
534.40	47101.15
534.61	47311.27
534.82	47508.70
535.02	47483.47
535.23	47615.03
535.44	47829.41
535.64	47676.30
535.85	47858.57
536.06	47826.62
536.26	47835.39
536.47	47947.29
536.68	48515.97
536.88	47831.21
537.09	48549.97
537.29	47948.03
537.50	48790.32
537.71	48389.65
537.91	48629.02
538.12	48799.65
538.33	48569.22
538.53	48864.78
538.74	48941.62
538.95	49081.86
539.15	48794.33
539.36	49275.44
539.56	49508.99
539.77	48914.67
539.98	49156.74
540.18	49460.90
540.39	49219.65
540.60	49499.57
540.80	49718.29
541.01	49602.87
541.21	49709.69
541.42	49922.52
541.63	49752.45
541.83	50037.86
542.04	50009.92
542.25	49892.70
542.45	50154.18
542.66	50165.73
542.86	50508.97
543.07	49313.78
543.28	50529.70
543.48	50363.65
543.69	50586.47
543.89	50407.80
544.10	50968.04
544.31	50753.66
544.51	50655.03
544.72	50988.77
544.92	50824.93
545.13	51200.94
545.33	51137.45
545.54	50784.55
545.75	51147.53
545.95	50855.73
546.16	50910.37
546.36	51528.53
546.57	50640.29
546.78	50004.19
546.98	50732.61
547.19	50071.85
547.39	51061.51
547.60	51337.42
547.80	52019.14
548.01	52102.62
548.22	51655.18
548.42	51755.94
548.63	52029.71
548.83	51823.19
549.04	52043.15
549.24	51597.10
549.45	51906.34
549.65	52352.47
549.86	51648.05
550.07	51985.56
550.27	52427.67
550.48	52422.18
550.68	52349.69
550.89	52381.22
551.09	52690.30
551.30	52422.76
551.50	52642.63
551.71	52373.36
551.91	52287.67
552.12	52496.40
552.33	52842.75
552.53	52301.93
552.74	53005.77
552.94	53126.52
553.15	52883.30
553.35	53195.33
553.56	52711.28
553.76	53379.32
553.97	52895.84
554.17	53023.55
554.38	53772.61
554.58	53043.29
554.79	53705.28
554.99	53078.60
555.20	53231.87
555.40	53799.89
555.61	53312.15
555.81	53168.38
556.02	54191.30
556.22	53872.80
556.43	53732.88
556.63	53812.84
556.84	53848.63
557.04	54508.90
557.25	53764.59
557.45	54267.08
557.66	54131.17
557.86	53892.71
558.07	54624.82
558.27	54099.55
558.48	54076.86
558.68	54239.06
558.89	54288.46
559.09	54322.13
559.30	53968.56
559.50	54267.73
559.71	53937.76
559.91	54800.61
560.12	54446.72
560.32	54442.96
560.53	54676.01
560.73	54341.95
560.94	54845.01
561.14	54319.50
561.35	54971.82
561.55	54814.87
561.76	55053.91
561.96	54352.93
562.17	55004.92
562.37	55188.50
562.57	54931.52
562.78	54810.03
562.98	55030.39
563.19	55070.62
563.39	55218.97
563.60	55220.61
563.80	54689.45
564.01	55335.21
564.21	55010.41
564.42	54876.31
564.62	55063.08
564.82	55469.23
565.03	55046.53
565.23	55295.57
565.44	55610.54
565.64	55279.59
565.85	55660.43
566.05	55360.69
566.25	55711.71
566.46	55380.27
566.66	55609.23
566.87	55641.26
567.07	55593.75
567.28	55797.40
567.48	56159.56
567.68	55378.88
567.89	56352.56
568.09	55841.23
568.30	55835.90
568.50	56317.42
568.71	56026.20
568.91	56386.23
569.11	55737.85
569.32	55857.53
569.52	56086.98
569.73	55468.66
569.93	56059.54
570.13	55871.13
570.34	55742.43
570.54	56308.16
570.75	55982.21
570.95	55990.97
571.15	55861.38
571.36	56499.53
571.56	55840.08
571.77	55855.07
571.97	55511.67
572.17	56422.93
572.38	56254.02
572.58	56632.40
572.79	56224.52
572.99	56220.26
573.19	56184.14
573.40	56090.75
573.60	56221.41
573.81	56179.31
574.01	56336.26
574.21	56315.21
574.42	56438.91
574.62	56128.84
574.82	56800.17
575.03	56440.95
575.23	57080.82
575.43	56503.13
575.64	56426.62
575.84	56959.66
576.05	56420.56
576.25	56720.95
576.45	56515.99
576.66	57035.19
576.86	56364.03
577.06	56795.33
577.27	56562.11
577.47	56671.88
577.67	56662.54
577.88	56183.07
578.08	56825.40
578.28	57047.81
578.49	56864.47
578.69	57079.10
578.89	56892.65
579.10	57001.85
579.30	57640.33
579.50	57127.11
579.71	56689.66
579.91	57304.62
580.11	56983.91
580.32	56833.18
580.52	56836.21
580.72	57409.40
580.93	56712.02
581.13	56807.13
581.33	57347.30
581.54	56923.70
581.74	57045.02
581.94	57245.97
582.15	57524.90
582.35	57092.04
582.55	57296.43
582.76	56859.23
582.96	57457.81
583.16	56962.78
583.37	57403.09
583.57	57013.89
583.77	57597.48
583.97	56462.50
584.18	57715.77
584.38	57385.56
584.58	57163.23
584.79	57480.75
584.99	57244.17
585.19	57167.33
585.40	57141.36
585.60	57628.78
585.80	56935.33
586.00	57371.31
586.21	57224.83
586.41	57372.04
586.61	57629.27
586.82	57358.20
587.02	57131.45
587.22	57523.67
587.42	56763.22
587.63	57525.72
587.83	56919.20
588.03	57368.93
588.23	56992.68
588.44	57427.83
588.64	57116.87
588.84	57332.39
589.05	57434.38
589.25	57449.21
589.45	57442.74
589.65	57331.66
589.86	57672.68
590.06	57637.30
590.26	57280.21
590.46	57708.07
590.67	56981.29
590.87	57788.35
591.07	57832.10
591.27	57283.16
591.48	57661.22
591.68	57017.83
591.88	58059.83
592.08	57272.59
592.29	57827.02
592.49	57712.74
592.69	58012.16
592.89	57509.50
593.10	57674.49
593.30	57506.72
593.50	58254.06
593.70	57186.74
593.90	58151.58
594.11	57864.29
594.31	57943.10
594.51	58113.57
594.71	58060.90
594.92	58036.16
595.12	57751.57
595.32	57773.44
595.52	58065.48
595.72	57335.02
595.93	58278.31
596.13	57859.38
596.33	57533.75
596.53	58085.96
596.73	57841.03
596.94	57653.52
597.14	58120.37
597.34	57922.62
597.54	58298.38
597.74	57734.86
597.95	57942.85
598.15	57851.35
598.35	57965.22
598.55	57976.85
598.75	57764.92
598.96	58389.56
599.16	57941.13
599.36	58052.05
599.56	57896.98
599.76	57846.19
599.97	58384.48
600.17	58051.31
600.37	58369.81
600.57	57536.45
600.77	58503.59
600.97	58015.84
601.18	58655.79
601.38	58107.26
601.58	58486.87
601.78	58119.39
601.98	57940.97
602.18	58156.58
602.39	58441.74
602.59	58153.87
602.79	57909.51
602.99	57890.42
603.19	57912.21
603.39	57747.31
603.60	57879.20
603.80	58088.01
604.00	57954.16
604.20	58151.09
604.40	58246.36
604.60	57988.64
604.80	57958.83
605.01	58052.71
605.21	57839.14
605.41	57700.21
605.61	57462.07
605.81	57857.25
606.01	58318.78
606.21	57834.15
606.42	58349.91
606.62	57914.59
606.82	58420.93
607.02	57829.64
607.22	58140.19
607.42	58226.05
607.62	57605.10
607.82	57891.49
608.03	57853.07
608.23	57736.66
608.43	57626.32
608.63	58172.72
608.83	58023.46
609.03	57987.74
609.23	58114.72
609.43	58096.94
609.63	57946.46
609.84	57635.98
610.04	58281.75
610.24	58167.31
610.44	58101.94
610.64	57695.38
610.84	58029.93
611.04	58292.56
611.24	58075.72
611.44	57307.33
611.64	58026.00
611.85	58001.01
612.05	57880.27
612.25	58098.58
612.45	57668.59
612.65	57837.75
612.85	57978.90
613.05	57612.15
613.25	58168.13
613.45	57865.28
613.65	57916.39
613.85	57467.23
614.05	57922.45
614.25	58096.78
614.46	57832.51
614.66	57519.74
614.86	57413.74
615.06	57450.93
615.26	57897.47
615.46	57041.42
615.66	57759.19
615.86	57720.85
616.06	57292.34
616.26	57409.64
616.46	58131.84
616.66	57562.50
616.86	58048.12
617.06	57526.54
617.26	58021.17
617.46	57458.55
617.66	57359.75
617.86	57233.93
618.07	57587.90
618.27	57390.64
618.47	57376.55
618.67	57364.75
618.87	57587.98
619.07	57201.90
619.27	57166.34
619.47	57145.54
619.67	57451.50
619.87	57078.61
620.07	57494.59
620.27	57466.99
620.47	57048.95
620.67	57501.64
620.87	57466.41
621.07	57560.54
621.27	57287.91
621.47	56920.01
621.67	57335.67
621.87	56958.84
622.07	57382.45
622.27	57344.93
622.47	57081.39
622.67	57282.10
622.87	56913.13
623.07	57324.12
623.27	57639.92
623.47	56670.41
623.67	57110.97
623.87	57394.00
624.07	57218.20
624.27	56751.75
624.47	57008.32
624.67	56764.53
624.87	56740.37
625.07	56448.57
625.27	56913.30
625.47	56406.38
625.67	56439.15
625.87	56731.03
626.07	56583.82
626.27	56843.67
626.47	56568.58
626.67	56553.51
626.87	56170.21
627.07	56654.76
627.27	56574.81
627.47	56699.33
627.67	56518.20
627.87	56588.74
628.07	56915.35
628.27	56722.18
628.47	56360.67
628.67	56995.87
628.86	56935.66
629.06	56496.25
629.26	56370.67
629.46	56723.90
629.66	56462.50
629.86	55984.99
630.06	56624.45
630.26	56371.16
630.46	56697.28
630.66	56093.04
630.86	56172.59
631.06	56154.65
631.26	55908.48
631.46	56458.24
631.66	56390.41
631.86	55967.79
632.06	56340.85
632.26	55949.52
632.45	55864.41
632.65	55928.55
632.85	56046.35
633.05	55929.94
633.25	56126.80
633.45	55619.47
633.65	55817.31
633.85	56361.00
634.05	55249.12
634.25	55693.12
634.45	55633.81
634.65	55959.44
634.84	55566.88
635.04	55787.73
635.24	55433.76
635.44	55819.11
635.64	55578.35
635.84	55847.70
636.04	55566.80
636.24	55501.43
636.44	55646.18
636.64	54917.51
636.84	55863.18
637.03	55162.20
637.23	55478.49
637.43	55579.74
637.63	55370.03
637.83	55598.17
638.03	55621.77
638.23	55055.22
638.43	55698.93
638.62	55742.60
638.82	54649.06
639.02	55439.25
639.22	54881.22
639.42	55155.16
639.62	54723.28
639.82	54952.16
640.02	55071.35
640.21	55149.26
640.41	54422.39
640.61	54813.39
640.81	54782.67
641.01	54717.63
641.21	54617.69
641.41	55298.76
641.61	54691.25
641.80	54708.62
642.00	54971.99
642.20	55005.74
642.40	54281.41
642.60	54813.88
642.80	54938.97
642.99	54563.54
643.19	54999.27
643.39	54484.98
643.59	54862.38
643.79	54571.98
643.99	54897.19
644.19	54545.76
644.38	54056.46
644.58	54328.19
644.78	54033.36
644.98	53981.43
645.18	54046.80
645.38	54329.17
645.57	53897.38
645.77	53941.69
645.97	53720.51
646.17	54058.35
646.37	53954.56
646.56	53878.86
646.76	54016.16
646.96	54128.63
647.16	53923.92
647.36	54086.53
647.55	53887.22
647.75	53892.87
647.95	53603.86
648.15	53910.57
648.35	53738.21
648.55	53832.66
648.74	53640.64
648.94	53648.43
649.14	53984.87
649.34	53542.42
649.54	53534.97
649.73	53644.58
649.93	53296.17
650.13	53510.06
650.33	53181.98
650.52	53395.05
650.72	53663.58
650.92	53169.94
651.12	52983.33
651.32	53346.39
651.51	53447.72
651.71	53440.76
651.91	53137.50
652.11	52977.92
652.30	52982.10
652.50	53460.09
652.70	53592.72
652.90	53216.63
653.10	53371.79
653.29	52914.60
653.49	53398.25
653.69	52836.36
653.89	52919.10
654.08	52570.70
654.28	53131.35
654.48	52825.14
654.68	53124.56
654.87	52626.49
655.07	52620.67
655.27	53033.13
655.47	52636.73
655.66	52653.77
655.86	52446.10
656.06	52978.99
656.26	52118.18
656.45	52515.90
656.65	52512.95
656.85	52392.12
657.04	51881.03
657.24	51829.58
657.44	51731.36
657.64	52208.95
657.83	51231.25
658.03	51962.70
658.23	51772.57
658.43	51651.41
658.62	51848.10
658.82	51600.21
659.02	51506.99
659.21	51621.02
659.41	51477.41
659.61	51978.92
659.81	51776.99
660.00	51429.41
660.20	51565.23
660.40	51351.42
660.59	51444.97
660.79	50929.38
660.99	51260.74
661.19	51212.33
661.38	51124.02
661.58	50474.07
661.78	51009.49
661.97	50806.25
662.17	51492.16
662.37	50966.08
662.56	50955.67
662.76	50994.83
662.96	51170.96
663.15	51071.26
663.35	50977.46
663.55	50765.38
663.74	50462.52
663.94	50900.46
664.14	50468.18
664.33	50802.73
664.53	50517.98
664.73	50989.26
664.93	50281.89
665.12	50615.30
665.32	50351.28
665.52	50445.40
665.71	50175.89
665.91	50329.65
666.10	50093.32
666.30	50295.41
666.50	49789.89
666.69	49772.69
666.89	50255.84
667.09	50518.72
667.28	50065.05
667.48	49893.35
667.68	50014.02
667.87	49922.19
668.07	49640.88
668.27	50110.03
668.46	50070.54
668.66	50007.55
668.86	50403.54
669.05	49817.82
669.25	50120.35
669.44	49713.21
669.64	49525.62
669.84	49507.92
670.03	49870.82
670.23	49356.05
670.43	49443.04
670.62	49424.45
670.82	49248.98
671.01	49499.73
671.21	49052.70
671.41	49052.87
671.60	49187.38
671.80	49367.27
672.00	49098.58
672.19	49381.61
672.39	49299.69
672.58	49091.94
672.78	48974.55
672.98	49371.28
673.17	49166.90
673.37	48359.51
673.56	48717.00
673.76	48899.19
673.96	49037.14
674.15	48720.19
674.35	48931.22
674.54	48681.36
674.74	48642.04
674.94	48571.84
675.13	48800.23
675.33	48307.32
675.52	48799.49
675.72	48711.51
675.91	48418.32
676.11	48667.11
676.31	48171.01
676.50	48235.64
676.70	48121.12
676.89	48336.24
677.09	48334.77
677.28	48305.68
677.48	47707.43
677.68	47994.72
677.87	47733.48
678.07	47671.31
678.26	47758.96
678.46	47827.20
678.65	47600.61
678.85	47885.69
679.04	47427.84
679.24	47791.81
679.44	47580.46
679.63	47635.59
679.83	47491.17
680.02	47660.74
680.22	47269.66
680.41	47434.40
680.61	47269.74
680.80	47177.50
681.00	47351.41
681.19	47257.86
681.39	47079.03
681.59	47008.34
681.78	46849.17
681.98	47180.53
682.17	46539.27
682.37	47056.51
682.56	46665.84
682.76	47104.10
682.95	46853.02
683.15	46911.35
683.34	46775.20
683.54	46990.56
683.73	47092.30
683.93	46497.25
684.12	46842.94
684.32	46934.53
684.51	46215.20
684.71	46584.00
684.90	46424.58
685.10	46474.55
685.29	46326.61
685.49	46588.75
685.68	46647.49
685.88	46553.11
686.07	46314.98
686.27	46651.17
686.46	46447.93
686.66	46152.12
686.85	46244.53
687.05	45990.91
687.24	45837.31
687.44	46024.98
687.63	46011.55
687.83	45484.81
688.02	45904.07
688.22	46031.70
688.41	45717.71
688.61	45769.64
688.80	45938.64
689.00	45509.22
689.19	45249.71
689.39	45764.40
689.58	45659.71
689.77	45550.59
689.97	45504.64
690.16	45373.24
690.36	44849.53
690.55	44831.10
690.75	45454.26
690.94	44845.76
691.14	45017.14
691.33	44602.38
691.53	45058.51
691.72	44851.99
691.91	44874.60
692.11	44790.31
692.30	44892.95
692.50	44843.96
692.69	44431.50
692.89	44571.09
693.08	44521.53
693.28	44548.48
693.47	44611.39
693.66	44538.98
693.86	44404.80
694.05	44276.67
694.25	44327.63
694.44	44393.65
694.64	44326.07
694.83	44147.33
695.02	44241.12
695.22	44401.27
695.41	44109.40
695.61	43989.63
695.80	43982.91
695.99	44064.42
696.19	44065.32
696.38	44021.01
696.58	43606.33
696.77	44237.44
696.96	44025.43
697.16	43737.81
697.35	43617.97
697.55	43568.81
697.74	43387.28
697.93	43818.91
698.13	43344.85
698.32	43599.12
698.52	43309.46
698.71	42860.55
698.90	43562.18
699.10	43212.88
699.29	43280.79
699.49	43642.05
699.68	43201.57
699.87	43181.01
700.07	43444.22
700.26	43068.54
700.45	42966.88
700.65	42835.23
700.84	43254.57
701.04	42948.12
701.23	43126.45
701.42	42967.29
701.62	42838.75
701.81	43034.05
702.00	42743.48
702.20	42370.92
702.39	42462.26
702.58	42464.22
702.78	42155.96
702.97	42065.11
703.17	42081.91
703.36	42062.08
703.55	42036.77
703.75	41950.02
703.94	42120.98
704.13	42049.55
704.33	42089.28
704.52	42236.65
704.71	42114.76
704.91	41949.45
705.10	41642.99
705.29	41816.65
705.49	41887.10
705.68	41984.42
705.87	41946.41
706.07	41614.07
706.26	41983.52
706.45	41397.72
706.65	41282.95
706.84	41685.75
707.03	41942.24
707.23	41224.46
707.42	41103.63
707.61	41529.37
707.80	41162.86
708.00	41227.58
708.19	41130.67
708.38	41558.36
708.58	40709.03
708.77	41187.27
708.96	40542.90
709.16	40431.57
709.35	41125.10
709.54	40655.87
709.74	40517.26
709.93	40211.78
710.12	40730.99
710.31	40980.43
710.51	40499.73
710.70	40598.44
710.89	40839.28
711.09	40155.67
711.28	40190.90
711.47	40401.18
711.66	40173.12
711.86	40056.63
712.05	40171.97
712.24	40222.19
712.43	39888.12
712.63	39599.36
712.82	40051.06
713.01	39793.26
713.21	39469.93
713.40	39566.51
713.59	39829.47
713.78	39264.39
713.98	39523.01
714.17	39346.64
714.36	39413.65
714.55	39120.95
714.75	39415.62
714.94	39464.19
715.13	39767.21
715.32	39159.78
715.52	39452.32
715.71	39115.55
715.90	39070.25
716.09	38804.50
716.29	39283.32
716.48	39092.86
716.67	38592.66
716.86	38757.56
717.06	38711.44
717.25	38773.95
717.44	38814.25
717.63	38875.28
717.82	38399.58
718.02	38462.25
718.21	38708.17
718.40	38685.15
718.59	38542.94
718.79	38307.34
718.98	38336.66
719.17	38630.51
719.36	38648.86
719.55	38273.01
719.75	38123.76
719.94	37996.78
720.13	38036.27
720.32	37897.74
720.51	37646.91
720.71	37587.44
720.90	37252.55
721.09	37622.01
721.28	37447.68
721.47	37916.99
721.67	37642.48
721.86	37567.77
722.05	37448.01
722.24	36998.85
722.43	37354.29
722.63	37044.81
722.82	37118.61
723.01	37104.52
723.20	36847.87
723.39	36789.46
723.58	36985.25
723.78	36414.28
723.97	36976.16
724.16	36471.87
724.35	36676.99
724.54	36499.31
724.73	36778.00
724.93	36577.13
725.12	36869.99
725.31	36292.96
725.50	36562.30
725.69	36740.15
725.88	36455.15
726.08	36060.14
726.27	36428.20
726.46	35772.69
726.65	36558.37
726.84	35927.60
727.03	35951.03
727.23	36201.94
727.42	35875.01
727.61	35770.15
727.80	35633.51
727.99	35789.40
728.18	35859.85
728.37	35583.29
728.56	35448.62
728.76	35304.93
728.95	35588.70
729.14	35451.57
729.33	35391.28
729.52	35414.38
729.71	35441.90
729.90	35458.12
730.09	35230.96
730.29	35499.49
730.48	34853.97
730.67	35336.72
730.86	34942.61
731.05	35259.39
731.24	34895.67
731.43	34864.54
731.62	34657.69
731.81	34511.88
732.01	35042.30
732.20	34542.11
732.39	34712.01
732.58	34628.78
732.77	34084.75
732.96	34474.52
733.15	34596.42
733.34	34222.54
733.53	34363.44
733.72	34411.28
733.92	34396.37
734.11	34364.75
734.30	34334.85
734.49	34570.61
734.68	34150.70
734.87	34062.39
735.06	34003.33
735.25	34079.76
735.44	33868.98
735.63	33995.71
735.82	34091.06
736.01	33876.11
736.20	33865.38
736.40	34030.77
736.59	33865.46
736.78	34021.84
736.97	33593.98
737.16	33625.76
737.35	33566.78
737.54	33613.39
737.73	33404.01
737.92	33564.73
738.11	33701.70
738.30	33452.83
738.49	33377.71
738.68	33304.31
738.87	33456.35
739.06	33224.77
739.25	33259.59
739.44	33137.77
739.63	33089.19
739.82	32839.83
740.01	32963.45
740.20	32714.33
740.39	32739.24
740.59	32718.51
740.78	32900.86
740.97	32716.55
741.16	32522.73
741.35	32699.67
741.54	32505.11
741.73	32584.58
741.92	32409.43
742.11	32586.21
742.30	32459.65
742.49	32095.27
742.68	32373.39
742.87	32192.51
743.06	31943.32
743.25	32136.32
743.44	31977.48
743.63	32153.03
743.82	31910.55
744.01	31884.42
744.20	31763.50
744.39	31934.06
744.58	31784.97
744.77	31620.15
744.96	31331.38
745.15	31638.09
745.34	31358.50
745.53	31469.25
745.72	31171.97
745.91	31232.26
746.10	30937.68
746.29	31278.05
746.48	31292.55
746.67	31208.18
746.86	31323.11
747.04	31156.24
747.23	31122.00
747.42	31326.39
747.61	30918.84
747.80	31317.87
747.99	30758.20
748.18	31040.16
748.37	30890.17
748.56	30591.49
748.75	30798.83
748.94	30728.87
749.13	30800.55
749.32	30514.49
749.51	30657.93
749.70	30686.19
749.89	30463.13
750.08	30621.80
750.27	30334.60
750.46	30503.68
750.65	30775.89
750.84	30423.31
751.02	30527.02
751.21	30305.02
751.40	30349.09
751.59	30415.78
751.78	30241.78
751.97	30216.14
752.16	30014.70
752.35	30244.65
752.54	29903.05
752.73	30238.09
752.92	29960.47
753.11	29861.60
753.30	29933.28
753.49	30025.60
753.67	29861.19
753.86	29662.78
754.05	29760.67
754.24	29532.61
754.43	29534.66
754.62	29638.78
754.81	29271.62
755.00	29444.63
755.19	29294.23
755.38	28896.84
755.56	29238.44
755.75	29398.02
755.94	29187.00
756.13	29186.09
756.32	29196.83
756.51	29016.85
756.70	29195.35
756.89	29137.43
757.08	28965.73
757.26	29057.89
757.45	28932.47
757.64	28800.09
757.83	29100.73
758.02	28866.20
758.21	28958.61
758.40	29093.53
758.59	28949.59
758.77	28779.86
758.96	28801.65
759.15	28763.23
759.34	28507.89
759.53	28577.11
759.72	28506.99
759.91	28209.79
760.09	28385.01
760.28	28481.59
760.47	28155.97
760.66	28420.48
760.85	28094.28
761.04	28344.46
761.23	28233.30
761.41	28121.56
761.60	28266.88
761.79	28086.66
761.98	28005.81
762.17	28318.74
762.36	28022.52
762.54	28309.15
762.73	28197.42
762.92	28036.86
763.11	28228.30
763.30	28262.21
763.49	28049.64
763.67	27899.64
763.86	27852.05
764.05	27992.70
764.24	27808.55
764.43	28008.02
764.61	27638.16
764.80	27769.23
764.99	28059.14
765.18	27647.66
765.37	27752.02
765.55	27712.54
765.74	27547.06
765.93	27385.60
766.12	27635.70
766.31	27603.26
766.49	27592.94
766.68	27672.40
766.87	27586.88
767.06	27529.86
767.25	27507.74
767.43	27459.41
767.62	27299.91
767.81	27518.15
768.00	27235.94
768.19	27068.66
768.37	27221.11
768.56	27122.81
768.75	27200.30
768.94	27192.93
769.12	26873.61
769.31	26755.48
769.50	26745.82
769.69	26903.51
769.88	26538.56
770.06	27077.67
770.25	26775.47
770.44	26736.64
770.63	26997.39
770.81	26815.94
771.00	26656.85
771.19	26715.51
771.38	26654.72
771.56	26840.84
771.75	26349.90
771.94	26710.67
772.13	26527.58
772.31	26423.63
772.50	26675.04
772.69	26463.93
772.88	26741.80
773.06	26418.80
773.25	26605.41
773.44	26530.70
773.62	26374.07
773.81	26417.40
774.00	26146.17
774.19	26245.05
774.37	26029.60
774.56	26268.23
774.75	25883.87
774.94	26224.65
775.12	25897.14
775.31	26100.71
775.50	26172.06
775.68	26021.33
775.87	26096.12
776.06	25875.27
776.25	26011.99
776.43	25862.24
776.62	26067.61
776.81	25761.73
776.99	25971.36
777.18	25819.48
777.37	25490.58
777.55	25620.50
777.74	25590.60
777.93	25540.71
778.12	25521.46
778.30	25452.89
778.49	25481.65
778.68	25643.19
778.86	25520.07
779.05	25557.59
779.24	25599.94
779.42	25456.82
779.61	25434.79
779.80	25469.85
779.98	25604.03
780.17	25693.41
780.36	25312.24
780.54	25517.61
780.73	25042.56
780.92	25398.17
781.10	25235.07
781.29	25105.07
781.48	25047.48
781.66	25111.46
781.85	25178.22
782.04	25001.11
782.22	25168.47
782.41	24942.70
782.60	25094.91
782.78	25044.04
782.97	25159.21
783.16	24819.50
783.34	24821.05
783.53	24871.35
783.71	24676.47
783.90	24685.72
784.09	24767.23
784.27	24760.19
784.46	24729.80
784.65	24858.33
784.83	24702.84
785.02	24714.64
785.20	24936.31
785.39	24582.75
785.58	24923.04
785.76	24891.75
785.95	24818.35
786.14	24862.34
786.32	24879.05
786.51	24735.28
786.69	24923.21
786.88	24735.61
787.07	24733.65
787.25	24692.77
787.44	24686.54
787.62	24605.44
787.81	24684.09
788.00	24634.77
788.18	24555.23
788.37	24577.10
788.55	25091.55
788.74	24826.79
788.93	25010.61
789.11	25177.48
789.30	25081.56
789.48	24973.26
789.67	25095.15
789.86	25059.11
790.04	25145.45
790.23	25018.56
790.41	24949.91
790.60	25074.35
790.78	24980.88
790.97	24716.61
791.16	24863.00
791.34	25055.59
791.53	24678.92
791.71	24998.57
791.90	24748.64
792.08	24727.34
792.27	24773.79
792.46	24637.72
792.64	24703.09
792.83	24620.27
793.01	24722.10
793.20	24576.85
793.38	24626.74
793.57	24658.36
793.75	24683.18
793.94	24818.92
794.12	24955.73
794.31	24667.78
794.50	24940.41
794.68	24934.59
794.87	24828.43
795.05	25009.47
795.24	24807.78
795.42	24725.70
795.61	25039.61
795.79	25031.18
795.98	24723.00
796.16	24972.69
796.35	25014.71
796.53	24832.69
796.72	25148.07
796.90	25109.90
797.09	25081.06
797.27	25077.21
797.46	24965.64
797.64	25015.36
797.83	24934.76
798.01	24920.83
798.20	25060.42
798.38	24907.07
798.57	25174.37
798.75	24985.38
798.94	24711.04
799.12	25244.82
799.31	24981.94
799.49	24992.10
799.68	24897.07
799.86	24982.19
800.05	24922.39
800.23	24986.45
800.42	24896.50
800.60	25254.81
800.79	24893.06
800.97	25009.96
801.16	25145.78
801.34	24910.59
801.53	24887.98
801.71	25059.44
801.90	24763.96
802.08	25107.85
802.27	24910.35
802.45	24657.87
802.64	24817.69
802.82	24835.80
803.00	24441.36
803.19	24564.81
803.37	24767.81
803.56	24473.31
803.74	24601.10
803.93	24694.49
804.11	24636.65
804.30	24583.73
804.48	24744.71
804.67	24727.34
804.85	24609.05
805.03	24809.34
805.22	24622.24
805.40	24528.93
805.59	24673.19
805.77	24738.15
805.96	24584.80
806.14	24489.28
806.32	24662.46
806.51	24679.25
806.69	24417.19
806.88	24305.29
807.06	24228.86
807.25	24234.27
807.43	24264.33
807.61	24404.41
807.80	24290.47
807.98	24571.61
808.17	24437.02
808.35	24353.79
808.53	24590.12
808.72	24395.16
808.90	24344.20
809.09	24364.68
809.27	24357.80
809.45	24176.68
809.64	24390.98
809.82	24105.49
810.01	24156.53
810.19	24136.13
810.37	23941.08
810.56	23915.11
810.74	23980.73
810.93	23777.08
811.11	23772.00
811.29	23727.85
811.48	23931.58
811.66	23887.59
811.84	23855.40
812.03	23837.29
812.21	23829.35
812.40	23913.15
812.58	24006.78
812.76	23807.31
812.95	23910.36
813.13	23568.68
813.31	23685.66
813.50	23760.94
813.68	23664.77
813.86	23795.43
814.05	23771.35
814.23	23480.45
814.42	23691.80
814.60	23508.47
814.78	23627.09
814.97	23601.45
815.15	23581.70
815.33	23676.24
815.52	23461.04
815.70	23439.82
815.88	23423.27
816.07	23154.74
816.25	23185.71
816.43	23184.89
816.62	22969.61
816.80	23088.06
816.98	23089.95
817.17	23089.95
817.35	23073.97
817.53	23109.61
817.72	23134.26
817.90	22871.55
818.08	22898.01
818.26	23031.78
818.45	22864.59
818.63	22982.88
818.81	23049.64
819.00	22711.40
819.18	22965.10
819.36	22892.36
819.55	22873.52
819.73	22707.06
819.91	22889.08
820.09	22745.64
820.28	22877.61
820.46	22599.58
820.64	22959.70
820.83	22570.58
821.01	22648.49
821.19	22590.16
821.38	22649.72
821.56	22508.65
821.74	22599.99
821.92	22448.44
822.11	22656.19
822.29	22325.56
822.47	22376.19
822.65	22446.07
822.84	22551.25
823.02	22296.32
823.20	22610.48
823.39	22342.19
823.57	22523.64
823.75	22430.99
823.93	22295.99
824.12	22428.29
824.30	22282.72
824.48	22256.34
824.66	22451.39
824.85	21944.56
825.03	22260.36
825.21	22237.91
825.39	22129.04
825.58	22203.18
825.76	22107.09
825.94	22208.42
826.12	22077.02
826.31	22022.38
826.49	22034.83
826.67	21968.40
826.85	21899.75
827.03	21932.68
827.22	21975.44
827.40	21830.04
827.58	21882.71
827.76	22026.89
827.95	21852.97
828.13	21955.04
828.31	21896.88
828.49	22025.82
828.67	21941.28
828.86	21872.31
829.04	21964.79
829.22	21882.63
829.40	21887.87
829.58	21832.99
829.77	21807.02
829.95	21756.23
830.13	21755.49
830.31	21631.14
830.49	21635.48
830.68	21561.51
830.86	21405.62
831.04	21360.89
831.22	21381.78
831.40	21399.72
831.59	21482.86
831.77	21325.42
831.95	21473.36
832.13	21235.06
832.31	21334.02
832.50	21215.81
832.68	21090.31
832.86	21175.34
833.04	21265.53
833.22	20941.87
833.40	21301.33
833.59	21060.41
833.77	21240.63
833.95	20819.90
834.13	21476.97
834.31	21213.43
834.49	21155.19
834.67	21117.02
834.86	21081.05
835.04	20970.54
835.22	21039.19
835.40	20958.42
835.58	20912.14
835.76	20989.22
835.95	21048.12
836.13	20944.25
836.31	20859.54
836.49	21007.90
836.67	20991.93
836.85	20843.00
837.03	20845.45
837.21	20821.94
837.40	20684.48
837.58	20568.65
837.76	20691.12
837.94	20692.76
838.12	20806.79
838.30	20549.15
838.48	20482.72
838.66	20433.49
838.85	20466.42
839.03	20399.90
839.21	20386.14
839.39	20339.52
839.57	20425.05
839.75	20245.40
839.93	20258.75
840.11	20387.77
840.29	20305.77
840.47	20298.89
840.66	20366.15
840.84	20224.76
841.02	20235.82
841.20	20187.97
841.38	20190.76
841.56	20128.50
841.74	20294.31
841.92	20035.44
842.10	19979.25
842.28	20068.86
842.46	19917.89
842.65	19935.83
842.83	20007.67
843.01	20058.22
843.19	19818.28
843.37	19950.25
843.55	19823.76
843.73	19927.23
843.91	19986.86
844.09	19926.98
844.27	20106.06
844.45	19925.59
844.63	19937.06
844.81	19927.15
844.99	19927.72
845.17	19769.53
845.35	19923.54
845.54	19735.54
845.72	19732.42
845.90	19643.46
846.08	19734.39
846.26	19492.24
846.44	19635.68
846.62	19392.46
846.80	19417.77
846.98	19438.75
847.16	19402.70
847.34	19452.84
847.52	19467.99
847.70	19339.38
847.88	19479.71
848.06	19397.05
848.24	19474.13
848.42	19419.50
848.60	19300.47
848.78	19363.95
848.96	19405.90
849.14	19367.64
849.32	19536.80
849.50	19297.44
849.68	19446.28
849.86	19418.59
850.04	19365.26
850.22	19298.09
850.40	19062.74
850.58	19251.23
850.76	19488.39
850.94	18962.22
851.12	19180.21
851.30	18987.62
851.48	19148.75
851.66	18934.45
851.84	18962.55
852.02	19000.23
852.20	19109.60
852.38	18878.42
852.56	19034.89
852.74	19052.91
852.92	18926.34
853.10	18804.78
853.28	18939.94
853.46	18540.18
853.64	18837.87
853.82	18653.47
854.00	18655.19
854.18	18552.06
854.36	18502.01
854.54	18622.92
854.72	18399.52
854.90	18404.11
855.07	18511.92
855.25	18433.44
855.43	18502.74
855.61	18445.48
855.79	18368.15
855.97	18430.16
856.15	18431.88
856.33	18398.54
856.51	18524.04
856.69	18296.88
856.87	18432.95
857.05	18242.40
857.23	18217.50
857.41	18067.51
857.59	18092.90
857.77	17971.25
857.94	17943.65
858.12	18005.99
858.30	17923.58
858.48	17873.52
858.66	17801.27
858.84	17954.05
859.02	17812.33
859.20	17756.54
859.38	18035.89
859.56	18015.82
859.74	18022.37
859.92	18092.90
860.09	17961.18
860.27	18069.39
860.45	17898.26
860.63	17898.59
860.81	17966.75
860.99	17866.15
861.17	17651.11
861.35	17359.98
861.53	17253.32
861.70	17217.68
861.88	17556.66
862.06	17583.78
862.24	17334.66
862.42	17319.75
862.60	17477.61
862.78	17502.92
862.96	17513.49
863.14	17400.36
863.31	17407.00
863.49	17322.70
863.67	17292.64
863.85	17326.63
864.03	17331.63
864.21	17281.74
864.39	17281.42
864.56	17152.15
864.74	17222.35
864.92	17067.77
865.10	17059.99
865.28	17036.07
865.46	17194.83
865.64	16890.58
865.81	17012.97
865.99	16836.43
866.17	17046.31
866.35	16962.10
866.53	17015.67
866.71	16984.87
866.88	17046.55
867.06	16878.29
867.24	16918.93
867.42	16789.99
867.60	16931.54
867.78	16775.57
867.95	17010.35
868.13	16855.68
868.31	16991.26
868.49	16883.04
868.67	16838.81
868.84	16705.04
869.02	16809.48
869.20	16453.05
869.38	16724.12
869.56	16636.22
869.73	16540.05
869.91	16582.24
870.09	16586.50
870.27	16461.16
870.45	16410.29
870.62	16303.47
870.80	16434.79
870.98	16395.96
871.16	16391.20
871.34	16392.43
871.51	16444.70
871.69	16258.41
871.87	16332.63
872.05	16294.62
872.23	16354.01
872.40	16216.47
872.58	16283.97
872.76	16196.81
872.94	16209.59
873.11	16249.81
873.29	16143.81
873.47	16176.91
873.65	16137.83
873.83	16118.33
874.00	16052.55
874.18	16048.46
874.36	15983.41
874.54	16057.47
874.71	15931.72
874.89	15828.26
875.07	15892.97
875.25	15840.87
875.42	15818.59
875.60	15773.86
875.78	15915.17
875.96	15718.41
876.13	15789.59
876.31	15465.28
876.49	15465.77
876.66	15333.47
876.84	15592.58
877.02	15430.13
877.20	15444.55
877.37	15473.88
877.55	15482.56
877.73	15474.86
877.91	15398.43
878.08	15519.10
878.26	15474.53
878.44	15463.80
878.61	15539.58
878.79	15501.49
878.97	15496.57
879.15	15602.98
879.32	15509.19
879.50	15452.33
879.68	15567.76
879.85	15351.33
880.03	15523.11
880.21	15363.53
880.38	15441.36
880.56	15277.36
880.74	15454.30
880.92	15206.33
881.09	15342.89
881.27	15278.91
881.45	15280.47
881.62	15259.33
881.80	15216.33
881.98	15192.82
882.15	15398.27
882.33	15166.11
882.51	15261.46
882.68	15186.67
882.86	15383.85
883.04	15152.51
883.21	15232.30
883.39	15332.57
883.57	15183.31
883.74	15214.03
883.92	15236.89
884.10	15131.29
884.27	15105.74
884.45	15043.23
884.63	15185.11
884.80	15085.26
884.98	15208.38
885.16	15102.95
885.33	15158.82
885.51	15127.77
885.69	15137.60
885.86	15096.15
886.04	15197.89
886.21	14970.08
886.39	15115.81
886.57	14888.00
886.74	15114.17
886.92	15068.95
887.10	15142.93
887.27	15146.29
887.45	15131.05
887.62	15118.68
887.80	15122.04
887.98	15235.33
888.15	15132.52
888.33	15099.76
888.51	15198.30
888.68	15042.58
888.86	15117.12
889.03	14989.90
889.21	15071.90
889.39	15124.99
889.56	15119.17
889.74	15081.82
889.91	15095.82
890.09	15040.69
890.27	15025.21
890.44	15025.29
890.62	15064.12
890.79	15082.06
890.97	15113.19
891.14	15054.37
891.32	15081.08
891.50	15035.37
891.67	15104.34
891.85	15090.66
892.02	15076.08
892.20	15216.41
892.38	15108.28
892.55	15054.86
892.73	15206.74
892.90	15001.94
893.08	15050.28
893.25	14979.50
893.43	15156.77
893.60	14991.87
893.78	15083.04
893.96	15031.60
894.13	15093.45
894.31	15195.19
894.48	15102.70
894.66	15147.27
894.83	15186.02
895.01	15223.53
895.18	15264.74
895.36	15192.65
895.53	15273.42
895.71	15163.57
895.89	15249.09
896.06	15168.24
896.24	15263.84
896.41	15175.04
896.59	15262.94
896.76	14989.00
896.94	15150.05
897.11	15139.40
897.29	15098.94
897.46	14944.85
897.64	15002.11
897.81	14980.15
897.99	14877.26
898.16	15052.32
898.34	14957.87
898.51	14912.41
898.69	14865.63
898.86	14877.35
899.04	14919.21
899.21	14903.56
899.39	14990.72
899.56	14900.12
899.74	15105.24
899.91	14948.53
900.09	14904.30
900.26	14930.84
900.44	14830.41
900.61	14848.02
900.79	14941.57
900.96	14765.20
901.14	14828.28
901.31	14739.89
901.49	14749.63
901.66	14771.92
901.84	14737.92
902.01	14621.27
902.19	14702.29
902.36	14628.15
902.54	14640.60
902.71	14621.10
902.88	14658.13
903.06	14439.90
903.23	14616.76
903.41	14512.32
903.58	14457.68
903.76	14408.44
903.93	14548.36
904.11	14611.44
904.28	14493.07
904.45	14529.19
904.63	14443.34
904.80	14335.13
904.98	14409.92
905.15	14280.57
905.33	14408.20
905.50	14275.00
905.68	14334.47
905.85	14201.68
906.02	14132.62
906.20	14217.16
906.37	14056.60
906.55	13996.06
906.72	14129.84
906.90	13999.59
907.07	13927.74
907.24	14008.93
907.42	13906.94
907.59	13909.89
907.77	13847.55
907.94	13870.73
908.11	13843.86
908.29	13796.92
908.46	13840.99
908.64	13757.27
908.81	13851.48
908.98	13726.06
909.16	13887.03
909.33	13778.82
909.51	13729.42
909.68	13693.78
909.85	13729.25
910.03	13673.39
910.20	13615.31
910.37	13619.07
910.55	13608.67
910.72	13581.80
910.90	13525.93
911.07	13477.44
911.24	13416.24
911.42	13551.16
911.59	13352.59
911.76	13381.59
911.94	13269.04
912.11	13277.88
912.29	13251.91
912.46	13106.92
912.63	13117.32
912.81	12926.53
912.98	13044.41
913.15	12955.86
913.33	13002.06
913.50	12991.74
913.67	12894.91
913.85	12846.66
914.02	12884.18
914.19	12879.68
914.37	12844.04
914.54	12850.35
914.71	12835.11
914.89	12819.96
915.06	12807.75
915.23	12730.01
915.41	12671.85
915.58	12659.31
915.75	12581.41
915.93	12605.49
916.10	12458.12
916.27	12474.51
916.45	12457.06
916.62	12336.14
916.79	12447.31
916.97	12319.68
917.14	12295.19
917.31	12227.77
917.49	12279.46
917.66	12249.06
917.83	12167.97
918.00	12162.31
918.18	12159.53
918.35	12112.26
918.52	12209.33
918.70	12086.62
918.87	12097.11
919.04	12110.29
919.21	12102.84
919.39	12029.11
919.56	12080.07
919.73	11959.81
919.91	11966.36
920.08	11950.23
920.25	11855.94
920.42	11959.24
920.60	11760.26
920.77	11677.93
920.94	11721.59
921.11	11611.98
921.29	11670.72
921.46	11538.34
921.63	11618.04
921.81	11556.11
921.98	11603.55
922.15	11522.69
922.32	11569.06
922.50	11463.38
922.67	11473.95
922.84	11398.58
923.01	11374.09
923.19	11379.99
923.36	11342.88
923.53	11197.80
923.70	11284.80
923.87	11199.19
924.05	11236.47
924.22	11084.02
924.39	11151.35
924.56	11013.73
924.74	11049.12
924.91	11033.64
925.08	10999.23
925.25	10966.38
925.43	10922.55
925.60	10853.50
925.77	10974.65
925.94	10866.52
926.11	10861.44
926.29	10826.79
926.46	10815.49
926.63	10803.04
926.80	10802.30
926.97	10690.31
927.15	10816.72
927.32	10712.02
927.49	10667.46
927.66	10703.83
927.83	10708.26
928.01	10533.85
928.18	10559.00
928.35	10506.98
928.52	10561.13
928.69	10418.84
928.87	10433.91
929.04	10419.90
929.21	10454.14
929.38	10336.43
929.55	10395.08
929.72	10294.07
929.90	10319.22
930.07	10283.51
930.24	10179.14
930.41	10206.50
930.58	10178.00
930.75	10189.55
930.93	10114.59
931.10	10093.54
931.27	9978.60
931.44	9985.90
931.61	9966.24
931.78	10037.59
931.95	9926.59
932.13	9857.04
932.30	9950.59
932.47	9839.02
932.64	9870.55
932.81	9806.66
932.98	9810.84
933.15	9809.44
933.33	9710.89
933.50	9787.16
933.67	9688.37
933.84	9700.00
934.01	9695.00
934.18	9663.30
934.35	9645.28
934.52	9611.45
934.70	9611.20
934.87	9582.45
935.04	9512.49
935.21	9492.83
935.38	9499.79
935.55	9425.08
935.72	9483.24
935.89	9397.64
936.06	9436.38
936.24	9333.90
936.41	9462.35
936.58	9367.65
936.75	9349.39
936.92	9368.56
937.09	9358.97
937.26	9286.56
937.43	9290.08
937.60	9300.65
937.77	9263.45
937.94	9199.15
938.12	9211.27
938.29	9157.37
938.46	9168.84
938.63	9041.78
938.80	9149.67
938.97	9059.80
939.14	9020.16
939.31	9001.31
939.48	9017.70
939.65	8906.29
939.82	8923.90
939.99	8908.75
940.16	8919.97
940.33	8854.02
940.50	8867.62
940.67	8789.14
940.85	8815.60
941.02	8791.27
941.19	8838.71
941.36	8823.63
941.53	8817.41
941.70	8811.34
941.87	8741.96
942.04	8764.90
942.21	8753.84
942.38	8749.99
942.55	8680.27
942.72	8683.80
942.89	8661.43
943.06	8625.96
943.23	8587.71
943.40	8571.65
943.57	8584.18
943.74	8533.80
943.91	8515.86
944.08	8498.50
944.25	8502.02
944.42	8430.34
944.59	8432.96
944.76	8415.19
944.93	8387.25
945.10	8371.11
945.27	8333.02
945.44	8234.47
945.61	8285.34
945.78	8218.99
945.95	8234.80
946.12	8174.84
946.29	8249.30
946.46	8183.60
946.63	8151.49
946.80	8131.50
946.97	8113.64
947.14	8070.31
947.31	8171.07
947.48	8060.15
947.65	8061.87
947.82	8035.74
947.99	8069.00
948.16	7993.80
948.33	8050.97
948.50	7977.08
948.67	8011.16
948.84	7981.26
949.01	7954.56
949.18	7952.92
949.35	7960.13
949.52	7857.48
949.68	7908.93
949.85	7884.27
950.02	7876.49
950.19	7851.17
950.36	7834.96
950.53	7793.91
950.70	7741.32
950.87	7696.02
951.04	7771.55
951.21	7678.65
951.38	7649.82
951.55	7676.44
951.72	7645.31
951.89	7638.68
952.06	7651.38
952.23	7641.38
952.39	7624.51
952.56	7535.95
952.73	7602.80
952.90	7528.09
953.07	7620.08
953.24	7503.68
953.41	7550.70
953.58	7452.80
953.75	7531.12
953.92	7430.77
954.09	7486.23
954.25	7413.16
954.42	7445.02
954.59	7388.91
954.76	7359.99
954.93	7341.64
955.10	7353.52
955.27	7289.87
955.44	7297.08
955.61	7314.36
955.77	7321.73
955.94	7280.45
956.11	7278.89
956.28	7261.52
956.45	7273.65
956.62	7259.39
956.79	7270.53
956.96	7200.17
957.12	7214.42
957.29	7168.38
957.46	7150.61
957.63	7106.62
957.80	7106.29
957.97	7072.37
958.14	7121.20
958.30	7037.80
958.47	7014.95
958.64	7014.70
958.81	7054.84
958.98	6984.39
959.15	7005.36
959.32	7026.66
959.48	7019.70
959.65	6957.61
959.82	6999.38
959.99	6941.71
960.16	7010.69
960.33	6972.76
960.49	6941.30
960.66	6870.94
960.83	6888.30
961.00	6884.70
961.17	6848.98
961.33	6804.01
961.50	6809.25
961.67	6764.44
961.84	6787.79
962.01	6721.76
962.18	6757.72
962.34	6720.29
962.51	6708.82
962.68	6651.23
962.85	6728.81
963.02	6626.24
963.18	6669.25
963.35	6641.89
963.52	6627.14
963.69	6647.87
963.86	6655.57
964.02	6601.91
964.19	6617.64
964.36	6574.47
964.53	6571.44
964.69	6501.15
964.86	6585.61
965.03	6456.75
965.20	6535.23
965.37	6405.88
965.53	6483.05
965.70	6427.67
965.87	6487.80
966.04	6415.71
966.20	6421.12
966.37	6416.86
966.54	6375.41
966.71	6388.19
966.87	6351.00
967.04	6354.52
967.21	6324.21
967.38	6285.54
967.54	6296.68
967.71	6264.82
967.88	6287.67
968.05	6254.50
968.21	6242.86
968.38	6177.00
968.55	6211.08
968.72	6179.95
968.88	6189.94
969.05	6173.89
969.22	6157.26
969.39	6150.05
969.55	6174.71
969.72	6117.53
969.89	6130.31
970.05	6164.71
970.22	6150.95
970.39	6129.98
970.56	6123.59
970.72	6109.91
970.89	6141.37
971.06	6070.26
971.22	6088.69
971.39	6079.44
971.56	6103.77
971.73	6046.83
971.89	6065.26
972.06	6035.53
972.23	6076.41
972.39	5992.68
972.56	6057.24
972.73	5969.42
972.89	6001.45
973.06	5997.35
973.23	6020.37
973.39	5969.99
973.56	5956.89
973.73	5922.89
973.89	5948.94
974.06	5893.73
974.23	5896.02
974.39	5880.54
974.56	5871.53
974.73	5847.28
974.89	5832.37
975.06	5830.98
975.23	5836.47
975.39	5814.35
975.56	5803.37
975.73	5788.46
975.89	5770.27
976.06	5767.57
976.23	5746.19
976.39	5750.70
976.56	5712.44
976.73	5702.45
976.89	5715.14
977.06	5691.06
977.23	5689.09
977.39	5703.02
977.56	5728.50
977.72	5655.26
977.89	5677.30
978.06	5665.25
978.22	5626.59
978.39	5633.96
978.56	5628.64
978.72	5579.57
978.89	5621.10
979.05	5556.22
979.22	5577.27
979.39	5520.50
979.55	5541.48
979.72	5499.45
979.88	5546.23
980.05	5472.25
980.22	5548.77
980.38	5484.46
980.55	5485.12
980.71	5442.27
980.88	5468.16
981.05	5454.31
981.21	5436.37
981.38	5435.55
981.54	5428.43
981.71	5418.76
981.88	5381.08
982.04	5379.85
982.21	5366.09
982.37	5355.68
982.54	5387.71
982.70	5340.28
982.87	5346.02
983.04	5307.84
983.20	5366.82
983.37	5312.59
983.53	5362.89
983.70	5311.53
983.86	5300.14
984.03	5278.35
984.20	5282.37
984.36	5263.28
984.53	5267.46
984.69	5203.48
984.86	5212.49
985.02	5200.69
985.19	5251.32
985.35	5189.14
985.52	5178.66
985.68	5197.66
985.85	5174.73
986.02	5190.54
986.18	5203.81
986.35	5193.08
986.51	5211.34
986.68	5200.61
986.84	5177.10
987.01	5160.88
987.17	5167.60
987.34	5136.39
987.50	5138.93
987.67	5096.82
987.83	5120.41
988.00	5097.31
988.16	5080.52
988.33	5088.55
988.49	5086.99
988.66	5063.81
988.82	5045.38
988.99	5042.02
989.15	5041.69
989.32	5000.89
989.48	5023.59
989.65	4973.86
989.81	4980.74
989.98	4937.90
990.14	4952.97
990.31	4940.44
990.47	4925.36
990.64	4923.64
990.80	4908.00
990.97	4891.61
991.13	4925.77
991.30	4896.12
991.46	4879.49
991.63	4879.90
991.79	4875.56
991.95	4830.99
992.12	4870.07
992.28	4838.78
992.45	4855.73
992.61	4848.69
992.78	4839.60
992.94	4818.22
993.11	4860.98
993.27	4812.89
993.44	4827.31
993.60	4824.36
993.76	4821.00
993.93	4804.53
994.09	4813.14
994.26	4770.95
994.42	4775.86
994.59	4763.74
994.75	4793.39
994.91	4755.14
995.08	4757.35
995.24	4744.57
995.41	4753.17
995.57	4741.78
995.74	4715.73
995.90	4696.81
996.06	4719.83
996.23	4710.90
996.39	4678.05
996.56	4632.18
996.72	4679.69
996.88	4669.20
997.05	4666.50
997.21	4636.36
997.38	4654.87
997.54	4623.82
997.70	4647.00
997.87	4635.86
998.03	4613.50
998.20	4613.25
998.36	4603.51
998.52	4564.59
998.69	4600.72
998.85	4574.51
999.02	4601.87
999.18	4558.94
999.34	4576.64
999.51	4572.70
999.67	4557.63
999.83	4537.40
1000.00	4533.47
1000.16	4533.55
1000.33	4541.66
1000.49	4518.47
1000.65	4559.19
1000.82	4559.35
1000.98	4506.92
1001.14	4502.17
1001.31	4516.67
1001.47	4522.41
1001.63	4512.90
1001.80	4466.54
1001.96	4483.82
1002.12	4468.59
1002.29	4474.16
1002.45	4476.70
1002.61	4459.90
1002.78	4456.05
1002.94	4446.06
1003.10	4417.22
1003.27	4430.49
1003.43	4398.95
1003.59	4425.50
1003.76	4400.68
1003.92	4412.14
1004.08	4395.51
1004.25	4401.25
1004.41	4378.23
1004.57	4391.58
1004.74	4363.98
1004.90	4394.04
1005.06	4334.24
1005.23	4345.05
1005.39	4331.04
1005.55	4340.79
1005.71	4337.02
1005.88	4335.06
1006.04	4315.56
1006.20	4332.52
1006.37	4267.23
1006.53	4311.38
1006.69	4286.73
1006.85	4297.79
1007.02	4269.85
1007.18	4293.94
1007.34	4262.23
1007.51	4288.86
1007.67	4256.50
1007.83	4261.00
1007.99	4242.24
1008.16	4219.63
1008.32	4223.98
1008.48	4255.60
1008.64	4226.84
1008.81	4222.17
1008.97	4224.63
1009.13	4228.81
1009.29	4195.39
1009.46	4210.87
1009.62	4191.78
1009.78	4182.85
1009.95	4182.28
1010.11	4179.90
1010.27	4161.23
1010.43	4185.64
1010.59	4180.07
1010.76	4167.04
1010.92	4152.13
1011.08	4161.14
1011.24	4138.62
1011.41	4167.29
1011.57	4132.72
1011.73	4128.05
1011.89	4101.18
1012.06	4121.41
1012.22	4097.08
1012.38	4109.37
1012.54	4082.18
1012.70	4100.36
1012.87	4090.78
1013.03	4117.56
1013.19	4086.76
1013.35	4102.74
1013.51	4047.85
1013.68	4102.08
1013.84	4049.57
1014.00	4079.80
1014.16	4031.88
1014.32	4037.86
1014.49	4027.04
1014.65	4070.79
1014.81	4004.76
1014.97	4032.45
1015.13	4009.02
1015.30	4033.27
1015.46	4027.37
1015.62	4011.89
1015.78	4007.14
1015.94	3999.93
1016.10	4002.30
1016.27	3998.29
1016.43	3974.78
1016.59	4004.68
1016.75	3983.38
1016.91	3973.88
1017.07	3981.50
1017.24	3989.69
1017.40	3937.26
1017.56	3936.85
1017.72	3944.63
1017.88	3943.49
1018.04	3927.02
1018.21	3942.67
1018.37	3933.25
1018.53	3937.67
1018.69	3926.69
1018.85	3914.08
1019.01	3903.76
1019.17	3924.48
1019.34	3899.09
1019.50	3913.50
1019.66	3884.18
1019.82	3887.86
1019.98	3877.13
1020.14	3906.13
1020.30	3889.83
1020.46	3898.27
1020.63	3856.49
1020.79	3861.08
1020.95	3850.92
1021.11	3861.57
1021.27	3827.08
1021.43	3836.58
1021.59	3839.70
1021.75	3821.84
1021.91	3805.21
1022.07	3796.61
1022.24	3793.74
1022.40	3803.00
1022.56	3778.09
1022.72	3826.02
1022.88	3783.09
1023.04	3797.84
1023.20	3792.67
1023.36	3791.61
1023.52	3808.73
1023.68	3790.22
1023.84	3768.59
1024.01	3791.69
1024.17	3761.71
1024.33	3772.28
1024.49	3771.21
1024.65	3767.12
1024.81	3756.22
1024.97	3746.23
1025.13	3746.88
1025.29	3742.87
1025.45	3710.67
1025.61	3772.85
1025.77	3730.01
1025.93	3769.66
1026.09	3740.74
1026.25	3754.66
1026.41	3720.01
1026.57	3733.12
1026.73	3729.19
1026.90	3749.09
1027.06	3723.45
1027.22	3747.29
1027.38	3738.36
1027.54	3741.56
1027.70	3719.60
1027.86	3716.74
1028.02	3719.11
1028.18	3722.22
1028.34	3691.75
1028.50	3713.62
1028.66	3704.45
1028.82	3704.28
1028.98	3691.26
1029.14	3690.19
1029.30	3703.46
1029.46	3691.10
1029.62	3680.94
1029.78	3660.70
1029.94	3687.82
1030.10	3669.22
1030.26	3619.09
1030.42	3652.84
1030.58	3638.50
1030.74	3639.73
1030.90	3619.09
1031.06	3638.91
1031.22	3606.06
1031.38	3635.72
1031.54	3626.54
1031.70	3636.70
1031.86	3620.73
1032.02	3616.30
1032.18	3608.11
1032.34	3614.99
1032.50	3605.16
1032.66	3635.39
1032.82	3586.89
1032.98	3628.67
1033.14	3614.01
1033.30	3623.59
1033.45	3588.53
1033.61	3613.68
1033.77	3598.20
1033.93	3599.26
1034.09	3583.37
1034.25	3601.97
1034.41	3581.16
1034.57	3595.33
1034.73	3575.02
1034.89	3590.42
1035.05	3584.03
1035.21	3583.95
1035.37	3574.03
1035.53	3564.04
1035.69	3566.01
1035.85	3564.12
1036.01	3539.87
1036.16	3553.72
1036.32	3554.54
1036.48	3563.38
1036.64	3520.79
1036.80	3553.96
1036.96	3524.47
1037.12	3522.67
1037.28	3540.36
1037.44	3522.59
1037.60	3508.25
1037.76	3505.79
1037.91	3516.53
1038.07	3530.04
1038.23	3516.20
1038.39	3506.37
1038.55	3504.48
1038.71	3518.00
1038.87	3499.08
1039.03	3531.35
1039.19	3515.87
1039.35	3517.02
1039.50	3501.45
1039.66	3526.93
1039.82	3473.27
1039.98	3497.03
1040.14	3488.92
1040.30	3498.67
1040.46	3496.37
1040.62	3481.63
1040.77	3480.56
1040.93	3513.74
1041.09	3498.59
1041.25	3488.26
1041.41	3486.95
1041.57	3479.91
1041.73	3479.91
1041.88	3479.91

