SpectraSuite Data File
++++++++++++++++++++++++++++++++++++
Date: Tue Sep 20 11:52:11 EDT 2022
User: Laboratoire
Dark Spectrum Present: No
Reference Spectrum Present: No
Number of Sampled Component Spectra: 1
Spectrometers: FLMT00174
Integration Time (usec): 15000 (FLMT00174)
Spectra Averaged: 25 (FLMT00174)
Boxcar Smoothing: 0 (FLMT00174)
Correct for Electrical Dark: No (FLMT00174)
Strobe/Lamp Enabled: No (FLMT00174)
Correct for Detector Non-linearity: No (FLMT00174)
Correct for Stray Light: No (FLMT00174)
Number of Pixels in Processed Spectrum: 3648
>>>>>Begin Processed Spectral Data<<<<<
345.74	3156.82
345.96	3156.82
346.18	3156.82
346.39	3157.15
346.61	3213.43
346.83	3209.99
347.05	3213.02
347.27	3200.89
347.49	3205.56
347.71	3208.92
347.93	3210.89
348.15	3223.18
348.36	3204.42
348.58	3220.80
348.80	3200.16
349.02	3219.98
349.24	3217.52
349.46	3296.90
349.68	3321.56
349.90	3348.51
350.11	3316.56
350.33	3344.91
350.55	3327.70
350.77	3342.53
350.99	3315.66
351.21	3343.68
351.43	3302.39
351.65	3351.54
351.86	3333.93
352.08	3328.93
352.30	3324.92
352.52	3339.83
352.74	3307.06
352.96	3305.99
353.18	3335.65
353.39	3337.78
353.61	3330.73
353.83	3363.42
354.05	3341.96
354.27	3350.72
354.49	3337.86
354.70	3318.12
354.92	3321.64
355.14	3329.92
355.36	3323.28
355.58	3320.25
355.80	3345.97
356.02	3335.65
356.23	3336.55
356.45	3327.38
356.67	3342.86
356.89	3350.31
357.11	3336.63
357.33	3358.83
357.54	3324.67
357.76	3330.24
357.98	3323.53
358.20	3346.63
358.42	3323.44
358.63	3346.95
358.85	3343.35
359.07	3343.92
359.29	3327.38
359.51	3331.39
359.73	3329.10
359.94	3335.49
360.16	3305.34
360.38	3339.09
360.60	3326.72
360.82	3338.43
361.03	3347.28
361.25	3341.22
361.47	3360.63
361.69	3351.95
361.91	3338.27
362.12	3342.04
362.34	3358.10
362.56	3345.73
362.78	3314.35
363.00	3344.91
363.21	3348.43
363.43	3341.63
363.65	3329.83
363.87	3342.94
364.09	3343.84
364.30	3338.03
364.52	3324.51
364.74	3368.91
364.96	3356.87
365.17	3335.73
365.39	3337.78
365.61	3331.14
365.83	3345.73
366.05	3345.97
366.26	3348.10
366.48	3345.15
366.70	3357.36
366.92	3344.99
367.13	3344.17
367.35	3335.65
367.57	3354.25
367.79	3353.34
368.01	3338.11
368.22	3339.91
368.44	3349.82
368.66	3356.62
368.88	3348.10
369.09	3349.82
369.31	3354.65
369.53	3336.22
369.75	3345.56
369.96	3364.65
370.18	3355.88
370.40	3359.49
370.62	3355.72
370.83	3349.17
371.05	3376.94
371.27	3390.54
371.49	3337.94
371.70	3360.63
371.92	3353.26
372.14	3367.60
372.36	3351.21
372.57	3360.47
372.79	3369.32
373.01	3359.90
373.22	3363.34
373.44	3355.06
373.66	3356.21
373.88	3390.94
374.09	3354.41
374.31	3337.62
374.53	3366.21
374.75	3371.94
374.96	3372.10
375.18	3380.46
375.40	3354.33
375.61	3365.06
375.83	3370.06
376.05	3368.25
376.27	3386.44
376.48	3374.15
376.70	3358.10
376.92	3374.89
377.13	3357.44
377.35	3382.10
377.57	3367.11
377.79	3345.73
378.00	3373.82
378.22	3381.44
378.44	3354.65
378.65	3374.15
378.87	3371.28
379.09	3405.61
379.30	3365.71
379.52	3376.53
379.74	3385.29
379.96	3381.28
380.17	3374.48
380.39	3386.36
380.61	3387.09
380.82	3388.98
381.04	3372.68
381.26	3412.24
381.47	3402.90
381.69	3412.82
381.91	3394.71
382.12	3405.44
382.34	3409.70
382.56	3400.37
382.77	3413.31
382.99	3397.58
383.21	3412.65
383.42	3410.93
383.64	3416.01
383.86	3415.36
384.07	3425.60
384.29	3416.99
384.51	3395.04
384.72	3429.61
384.94	3437.23
385.16	3428.38
385.37	3407.74
385.59	3413.96
385.81	3434.44
386.02	3427.73
386.24	3445.67
386.46	3426.99
386.67	3454.68
386.89	3442.14
387.11	3447.30
387.32	3451.16
387.54	3441.57
387.76	3454.84
387.97	3454.19
388.19	3466.23
388.40	3456.07
388.62	3449.35
388.84	3453.45
389.05	3476.63
389.27	3465.49
389.49	3471.14
389.70	3472.29
389.92	3476.39
390.14	3484.25
390.35	3488.10
390.57	3485.15
390.78	3487.12
391.00	3488.02
391.22	3500.47
391.43	3481.79
391.65	3492.93
391.86	3512.18
392.08	3510.96
392.30	3510.63
392.51	3521.85
392.73	3536.19
392.95	3495.72
393.16	3499.98
393.38	3524.23
393.59	3520.87
393.81	3538.97
394.03	3531.93
394.24	3535.45
394.46	3545.53
394.67	3551.59
394.89	3546.75
395.11	3550.60
395.32	3585.50
395.54	3596.32
395.75	3580.10
395.97	3578.78
396.19	3553.72
396.40	3605.24
396.62	3576.98
396.83	3596.23
397.05	3588.70
397.26	3608.36
397.48	3595.41
397.70	3600.00
397.91	3606.15
398.13	3621.79
398.34	3621.87
398.56	3633.10
398.78	3637.36
398.99	3672.58
399.21	3607.21
399.42	3662.26
399.64	3632.77
399.85	3649.97
400.07	3646.70
400.29	3675.61
400.50	3636.86
400.72	3702.56
400.93	3676.35
401.15	3670.70
401.36	3683.89
401.58	3712.31
401.79	3695.03
402.01	3707.56
402.23	3722.22
402.44	3764.00
402.66	3728.86
402.87	3756.30
403.09	3735.90
403.30	3747.70
403.52	3743.69
403.73	3726.89
403.95	3745.16
404.16	3777.77
404.38	3767.77
404.60	3768.10
404.81	3777.27
405.03	3778.01
405.24	3818.89
405.46	3820.04
405.67	3781.45
405.89	3838.30
406.10	3816.27
406.32	3837.98
406.53	3845.84
406.75	3879.10
406.96	3851.41
407.18	3849.36
407.39	3838.22
407.61	3882.78
407.82	3880.74
408.04	3899.00
408.25	3895.40
408.47	3924.24
408.68	3918.42
408.90	3897.53
409.12	3938.08
409.33	3950.12
409.55	3931.77
409.76	3957.25
409.98	3926.20
410.19	3956.18
410.41	3985.18
410.62	3974.12
410.84	3964.05
411.05	3997.80
411.27	4008.28
411.48	4021.15
411.70	4020.57
411.91	4043.10
412.12	4031.80
412.34	4032.29
412.55	4034.91
412.77	4031.55
412.98	4076.77
413.20	4046.70
413.41	4090.29
413.63	4095.77
413.84	4079.14
414.06	4119.61
414.27	4095.45
414.49	4128.05
414.70	4122.32
414.92	4147.87
415.13	4137.80
415.35	4175.15
415.56	4172.94
415.78	4196.86
415.99	4207.92
416.21	4208.74
416.42	4226.68
416.63	4243.31
416.85	4232.25
417.06	4249.86
417.28	4216.19
417.49	4271.98
417.71	4242.00
417.92	4256.83
418.14	4256.58
418.35	4304.50
418.57	4311.88
418.78	4311.55
418.99	4304.34
419.21	4351.93
419.42	4358.98
419.64	4339.73
419.85	4361.44
420.07	4427.79
420.28	4383.96
420.50	4369.14
420.71	4426.07
420.92	4406.16
421.14	4458.18
421.35	4441.63
421.57	4456.13
421.78	4473.66
422.00	4493.33
422.21	4512.82
422.42	4509.30
422.64	4495.54
422.85	4548.29
423.07	4581.80
423.28	4560.42
423.50	4577.70
423.71	4597.44
423.92	4610.63
424.14	4611.94
424.35	4646.43
424.57	4651.35
424.78	4667.89
424.99	4677.07
425.21	4688.21
425.42	4713.03
425.64	4671.74
425.85	4719.26
426.06	4715.90
426.28	4733.27
426.49	4801.83
426.71	4763.82
426.92	4803.72
427.13	4829.03
427.35	4860.81
427.56	4874.90
427.78	4854.91
427.99	4891.37
428.20	4946.17
428.42	4924.38
428.63	4937.32
428.84	4909.39
429.06	4982.95
429.27	4997.13
429.49	5013.18
429.70	5029.48
429.91	5014.25
430.13	5047.42
430.34	5070.20
430.56	5104.60
430.77	5121.15
430.98	5116.07
431.20	5129.59
431.41	5175.38
431.62	5184.97
431.84	5170.88
432.05	5211.34
432.26	5234.03
432.48	5184.64
432.69	5289.08
432.91	5274.75
433.12	5287.04
433.33	5297.11
433.55	5393.45
433.76	5381.16
433.97	5373.05
434.19	5380.67
434.40	5442.85
434.61	5462.59
434.83	5457.26
435.04	5449.97
435.25	5512.39
435.47	5524.27
435.68	5493.80
435.89	5571.05
436.11	5575.72
436.32	5592.18
436.53	5595.05
436.75	5587.76
436.96	5636.75
437.17	5584.24
437.39	5621.67
437.60	5710.64
437.81	5723.17
438.03	5717.11
438.24	5745.86
438.45	5845.80
438.67	5753.56
438.88	5837.20
439.09	5868.09
439.31	5850.39
439.52	5877.42
439.73	5890.04
439.94	5838.68
440.16	5937.14
440.37	5874.31
440.58	5986.62
440.80	6017.59
441.01	5966.39
441.22	6101.72
441.44	6107.94
441.65	6059.37
441.86	6066.90
442.08	6132.60
442.29	6146.20
442.50	6170.61
442.71	6157.59
442.93	6223.04
443.14	6206.41
443.35	6293.57
443.57	6213.78
443.78	6325.93
443.99	6327.57
444.20	6333.06
444.42	6375.74
444.63	6395.15
444.84	6432.67
445.06	6467.32
445.27	6435.37
445.48	6446.19
445.69	6490.42
445.91	6527.53
446.12	6458.88
446.33	6557.68
446.54	6643.69
446.76	6564.23
446.97	6625.59
447.18	6621.16
447.39	6687.44
447.61	6712.26
447.82	6760.02
448.03	6688.50
448.25	6765.10
448.46	6838.17
448.67	6870.77
448.88	6813.67
449.10	6918.37
449.31	6935.00
449.52	6899.52
449.73	6956.21
449.95	7034.44
450.16	6968.42
450.37	7130.54
450.58	7232.03
450.79	7049.68
451.01	7169.94
451.22	7079.09
451.43	7172.31
451.64	7251.69
451.86	7243.34
452.07	7271.60
452.28	7331.89
452.49	7431.42
452.71	7360.97
452.92	7358.19
453.13	7434.62
453.34	7449.12
453.55	7535.46
453.77	7601.65
453.98	7614.84
454.19	7525.55
454.40	7621.07
454.62	7683.00
454.83	7613.77
455.04	7764.26
455.25	7682.34
455.46	7937.93
455.68	7822.99
455.89	7814.80
456.10	7870.18
456.31	7895.33
456.52	7983.88
456.74	7977.90
456.95	8091.03
457.16	8050.65
457.37	8156.73
457.58	8149.36
457.80	8142.64
458.01	8143.22
458.22	8490.71
458.43	8305.50
458.64	8359.73
458.86	8245.86
459.07	8375.95
459.28	8370.29
459.49	8490.31
459.70	8703.38
459.91	8627.85
460.13	8590.90
460.34	8666.10
460.55	8647.43
460.76	8770.30
460.97	8787.34
461.19	8796.11
461.40	9045.71
461.61	8922.51
461.82	8976.41
462.03	9074.22
462.24	9089.21
462.46	9059.15
462.67	9074.55
462.88	9238.22
463.09	9195.22
463.30	9347.18
463.51	9242.32
463.72	9443.10
463.94	9480.54
464.15	9504.38
464.36	9372.57
464.57	9670.84
464.78	9660.19
464.99	9729.57
465.20	9685.17
465.42	9881.69
465.63	9888.25
465.84	9867.69
466.05	10008.83
466.26	10063.39
466.47	10150.14
466.68	10123.68
466.90	10296.45
467.11	10239.02
467.32	10376.81
467.53	10520.58
467.74	10308.08
467.95	10416.79
468.16	10605.20
468.37	10691.54
468.59	10672.87
468.80	10873.49
469.01	10723.41
469.22	10925.75
469.43	11121.45
469.64	11007.26
469.85	11161.68
470.06	11219.92
470.28	11378.10
470.49	11159.14
470.70	11371.47
470.91	11620.67
471.12	11478.29
471.33	11761.89
471.54	11692.18
471.75	11725.77
471.96	12043.86
472.17	11973.90
472.39	12270.20
472.60	12052.05
472.81	12330.66
473.02	12265.94
473.23	12499.16
473.44	12584.93
473.65	12549.54
473.86	12712.73
474.07	12767.28
474.28	12858.21
474.49	13166.47
474.71	13109.46
474.92	13254.21
475.13	13197.36
475.34	13330.97
475.55	13392.32
475.76	13505.78
475.97	13856.23
476.18	13711.64
476.39	13984.76
476.60	14084.45
476.81	14111.90
477.02	14332.01
477.23	14356.92
477.44	14372.73
477.65	14559.26
477.87	14797.15
478.08	14816.97
478.29	14896.92
478.50	15236.81
478.71	15169.06
478.92	15311.11
479.13	15354.44
479.34	15494.19
479.55	15639.76
479.76	15631.82
479.97	15735.61
480.18	16197.96
480.39	15957.04
480.60	16308.38
480.81	16399.15
481.02	16478.37
481.23	16570.52
481.44	16778.76
481.65	16939.08
481.86	17201.79
482.07	16913.93
482.28	17585.99
482.49	17365.63
482.71	17433.37
482.92	17608.11
483.13	17916.70
483.34	17797.67
483.55	17950.53
483.76	18065.87
483.97	18315.80
484.18	18359.96
484.39	18532.31
484.60	18500.45
484.81	18907.50
485.02	18783.64
485.23	19102.96
485.44	19271.39
485.65	19458.16
485.86	19317.92
486.07	19701.79
486.28	19724.40
486.49	19934.44
486.70	20124.98
486.91	20257.77
487.12	20204.44
487.33	20199.12
487.54	20610.43
487.75	20686.86
487.96	20728.64
488.17	20754.77
488.38	21056.15
488.59	21154.78
488.80	21353.43
489.01	21415.85
489.22	21676.19
489.43	21692.58
489.64	21609.02
489.85	22147.64
490.06	21759.75
490.26	22119.37
490.47	22099.06
490.68	22416.57
490.89	22721.64
491.10	22464.41
491.31	22843.86
491.52	23102.48
491.73	23005.41
491.94	23037.11
492.15	23331.85
492.36	23425.24
492.57	23506.26
492.78	23472.34
492.99	23675.50
493.20	23897.99
493.41	23965.82
493.62	24112.37
493.83	24133.67
494.04	24271.38
494.25	24526.31
494.46	24604.54
494.67	24503.86
494.88	24834.65
495.08	24900.43
495.29	25015.86
495.50	25237.04
495.71	25138.57
495.92	25446.75
496.13	25496.47
496.34	25364.17
496.55	25592.15
496.76	25996.92
496.97	25618.53
497.18	26053.36
497.39	26003.88
497.60	26406.75
497.81	26097.68
498.02	26401.43
498.22	26171.98
498.43	26671.68
498.64	26767.93
498.85	26774.73
499.06	26926.04
499.27	27276.16
499.48	26824.13
499.69	27180.48
499.90	27324.49
500.11	27532.56
500.32	27836.07
500.52	27527.32
500.73	28027.11
500.94	28077.49
501.15	28182.92
501.36	28210.28
501.57	28157.69
501.78	28385.99
501.99	28652.64
502.20	28654.52
502.41	28705.89
502.61	28574.00
502.82	28986.79
503.03	28751.92
503.24	29229.27
503.45	29015.13
503.66	29403.34
503.87	29393.59
504.08	29627.14
504.28	29465.85
504.49	29672.94
504.70	29807.45
504.91	30000.86
505.12	29785.49
505.33	30258.74
505.54	30239.57
505.75	30380.14
505.95	30524.89
506.16	30504.00
506.37	30344.10
506.58	30891.89
506.79	30529.73
507.00	31022.55
507.21	30836.84
507.41	30820.29
507.62	30971.51
507.83	31555.02
508.04	31138.14
508.25	31564.77
508.46	31386.02
508.67	31793.24
508.87	31616.30
509.08	32066.44
509.29	32022.12
509.50	32191.53
509.71	32230.60
509.92	32286.88
510.12	32184.07
510.33	32428.93
510.54	32360.45
510.75	32550.42
510.96	32886.94
511.17	32972.30
511.37	32924.46
511.58	33183.97
511.79	33045.20
512.00	33045.61
512.21	33498.46
512.42	33579.89
512.62	33673.36
512.83	33918.46
513.04	33788.29
513.25	34137.75
513.46	33482.24
513.66	34459.61
513.87	34212.38
514.08	34597.89
514.29	34317.57
514.50	34342.96
514.71	34708.56
514.91	34554.23
515.12	34630.66
515.33	34957.68
515.54	34812.27
515.75	35185.99
515.95	34987.33
516.16	35008.63
516.37	35534.88
516.58	35760.07
516.78	35485.65
516.99	35693.06
517.20	35747.95
517.41	35721.74
517.62	35984.61
517.82	35801.03
518.03	36407.56
518.24	36832.39
518.45	36144.76
518.66	36686.25
518.86	36404.53
519.07	36885.56
519.28	36333.51
519.49	37035.38
519.69	37022.69
519.90	37188.08
520.11	37284.99
520.32	37199.71
520.52	37602.84
520.73	37296.21
520.94	37802.14
521.15	37898.48
521.36	37463.33
521.56	38265.80
521.77	37633.64
521.98	38296.85
522.19	37843.76
522.39	38304.72
522.60	38172.66
522.81	38391.14
523.02	38258.35
523.22	38586.19
523.43	38798.28
523.64	38649.84
523.84	38844.89
524.05	39145.94
524.26	39157.98
524.47	39026.91
524.67	39293.72
524.88	39418.40
525.09	39767.54
525.30	39426.92
525.50	39492.37
525.71	39654.33
525.92	39837.91
526.13	40141.99
526.33	39940.88
526.54	39739.69
526.75	40162.47
526.95	40604.18
527.16	39933.10
527.37	40661.85
527.58	40795.70
527.78	40643.82
527.99	41053.25
528.20	41251.58
528.40	40878.44
528.61	40960.03
528.82	41378.88
529.03	41367.82
529.23	41247.24
529.44	41525.52
529.65	41520.27
529.85	41610.79
530.06	41581.71
530.27	41723.02
530.47	41425.90
530.68	42381.32
530.89	41611.61
531.09	42257.21
531.30	42113.77
531.51	41855.32
531.72	42401.88
531.92	42375.75
532.13	42632.65
532.34	42520.42
532.54	42664.43
532.75	42796.57
532.96	42709.81
533.16	43123.18
533.37	43403.34
533.58	43004.72
533.78	43290.13
533.99	43474.94
534.20	43129.98
534.40	43503.12
534.61	43685.96
534.82	43763.21
535.02	43844.14
535.23	43979.15
535.44	44011.18
535.64	43943.02
535.85	44047.71
536.06	44123.49
536.26	44116.03
536.47	44340.16
536.68	44837.00
536.88	44196.39
537.09	44820.04
537.29	44293.06
537.50	45186.55
537.71	44830.36
537.91	45063.59
538.12	45260.60
538.33	44885.58
538.53	45191.13
538.74	45265.76
538.95	45352.84
539.15	45211.12
539.36	45561.08
539.56	45872.78
539.77	45459.25
539.98	45538.72
540.18	45860.82
540.39	45574.10
540.60	45966.99
540.80	46156.14
541.01	46178.42
541.21	46201.03
541.42	46338.90
541.63	46221.67
541.83	46538.04
542.04	46596.61
542.25	46545.25
542.45	46825.74
542.66	46737.43
542.86	46899.96
543.07	46015.15
543.28	47044.05
543.48	46938.46
543.69	47144.90
543.89	47021.77
544.10	47569.64
544.31	47358.95
544.51	47149.24
544.72	47430.30
544.92	47364.60
545.13	47841.21
545.33	47720.21
545.54	47515.91
545.75	47889.13
545.95	47745.61
546.16	47815.81
546.36	48389.41
546.57	47435.22
546.78	46684.84
546.98	47372.30
547.19	46656.25
547.39	47824.82
547.60	48181.25
547.80	48739.94
548.01	48828.00
548.22	48440.28
548.42	48564.38
548.63	48861.34
548.83	48570.86
549.04	48988.23
549.24	48710.61
549.45	48958.17
549.65	49394.14
549.86	48776.96
550.07	49009.28
550.27	49409.87
550.48	49484.66
550.68	49343.84
550.89	49327.78
551.09	49635.31
551.30	49438.13
551.50	49799.72
551.71	49482.12
551.91	49561.83
552.12	49854.69
552.33	50083.65
552.53	49651.77
552.74	50316.13
552.94	50338.17
553.15	50076.36
553.35	50302.86
553.56	49886.88
553.76	50483.90
553.97	50082.17
554.17	50450.89
554.38	51039.31
554.58	50419.19
554.79	51013.59
554.99	50440.41
555.20	50469.16
555.40	51058.32
555.61	50750.22
555.81	50499.55
556.02	51423.10
556.22	51182.18
556.43	50851.88
556.63	51112.14
556.84	50940.27
557.04	51555.57
557.25	50857.37
557.45	51394.59
557.66	51411.96
557.86	51256.56
558.07	51841.87
558.27	51493.55
558.48	51633.06
558.68	51672.63
558.89	51907.00
559.09	51885.53
559.30	51709.33
559.50	51976.38
559.71	51545.24
559.91	52290.87
560.12	51922.56
560.32	51973.60
560.53	52277.84
560.73	52070.59
560.94	52442.99
561.14	52042.82
561.35	52610.43
561.55	52294.14
561.76	52558.74
561.96	51929.77
562.17	52553.09
562.37	52767.39
562.57	52503.86
562.78	52543.67
562.98	52887.73
563.19	52861.84
563.39	53086.22
563.60	53163.14
563.80	52633.45
564.01	53409.14
564.21	53041.08
564.42	53043.46
564.62	53196.97
564.82	53534.48
565.03	53148.64
565.23	53255.95
565.44	53446.41
565.64	53246.29
565.85	53611.89
566.05	53311.99
566.25	53692.33
566.46	53346.72
566.66	53636.38
566.87	53692.58
567.07	53656.78
567.28	53767.13
567.48	54021.73
567.68	53378.42
567.89	54366.77
568.09	53915.15
568.30	53900.24
568.50	54398.80
568.71	54237.59
568.91	54508.65
569.11	54106.19
569.32	54146.41
569.52	54356.53
569.73	53804.40
569.93	54415.10
570.13	54224.15
570.34	54159.35
570.54	54620.72
570.75	54445.58
570.95	54506.69
571.15	54393.07
571.36	55008.52
571.56	54381.02
571.77	54450.57
571.97	53969.55
572.17	54894.74
572.38	54708.62
572.58	54917.43
572.79	54737.29
572.99	55012.78
573.19	54886.87
573.40	54887.94
573.60	55137.71
573.81	55072.26
574.01	55355.20
574.21	55104.45
574.42	55103.30
574.62	54861.64
574.82	55402.55
575.03	55107.56
575.23	55615.38
575.43	55131.48
575.64	55198.74
575.84	55558.61
576.05	55101.99
576.25	55421.97
576.45	55318.67
576.66	55830.50
576.86	55347.09
577.06	55831.97
577.27	55607.27
577.47	55747.10
577.67	55679.93
577.88	55156.80
578.08	55854.58
578.28	55980.73
578.49	55734.24
578.69	56000.31
578.89	55697.95
579.10	55792.65
579.30	56503.70
579.50	55910.37
579.71	55506.42
579.91	56183.24
580.11	55909.79
580.32	55951.90
580.52	55986.88
580.72	56605.77
580.93	55844.09
581.13	55878.17
581.33	56404.17
581.54	55932.98
581.74	56132.12
581.94	56243.20
582.15	56676.80
582.35	56377.22
582.55	56530.33
582.76	56196.59
582.96	56632.48
583.16	56302.67
583.37	56532.29
583.57	56237.47
583.77	56841.37
583.97	55768.89
584.18	57029.70
584.38	56817.37
584.58	56410.64
584.79	56899.29
584.99	56851.53
585.19	56807.87
585.40	56664.51
585.60	57087.95
585.80	56450.95
586.00	57002.92
586.21	56664.18
586.41	56887.25
586.61	57177.16
586.82	57062.96
587.02	56847.11
587.22	57309.05
587.42	56653.37
587.63	57355.00
587.83	56695.64
588.03	57036.75
588.23	56706.62
588.44	57091.22
588.64	56854.81
588.84	57185.76
589.05	57402.43
589.25	57426.85
589.45	57450.68
589.65	57110.07
589.86	57499.26
590.06	57487.47
590.26	57049.61
590.46	57540.14
590.67	56909.20
590.87	57549.23
591.07	57711.35
591.27	57248.75
591.48	57755.67
591.68	57080.98
591.88	58093.83
592.08	57270.54
592.29	57764.84
592.49	57470.43
592.69	57831.28
592.89	57382.86
593.10	57583.23
593.30	57334.03
593.50	57964.97
593.70	56854.97
593.90	57750.43
594.11	57509.50
594.31	57691.12
594.51	58003.96
594.71	58007.81
594.92	58054.10
595.12	57893.21
595.32	57933.68
595.52	58167.72
595.72	57461.33
595.93	58283.06
596.13	57996.26
596.33	57677.03
596.53	58202.13
596.73	58042.38
596.94	57883.95
597.14	58329.02
597.34	58091.78
597.54	58450.58
597.74	57920.65
597.95	58132.33
598.15	58121.35
598.35	58272.33
598.55	58402.66
598.75	58124.55
598.96	58715.18
599.16	58208.43
599.36	58360.97
599.56	58274.38
599.76	58171.41
599.97	58627.20
600.17	58514.24
600.37	58580.67
600.57	57827.35
600.77	58845.60
600.97	58453.29
601.18	59055.14
601.38	58507.85
601.58	58841.66
601.78	58612.46
601.98	58315.75
602.18	58842.65
602.39	59141.16
602.59	58776.29
602.79	58517.59
602.99	58720.51
603.19	58632.77
603.39	58546.68
603.60	58558.39
603.80	58713.13
604.00	58499.57
604.20	58680.20
604.40	58880.25
604.60	58709.86
604.80	58689.05
605.01	58874.68
605.21	58742.54
605.41	58791.86
605.61	58479.17
605.81	58864.60
606.01	59147.06
606.21	58530.62
606.42	58967.33
606.62	58508.17
606.82	59041.96
607.02	58809.96
607.22	59091.76
607.42	59299.92
607.62	58695.28
607.82	59017.30
608.03	59001.57
608.23	58866.90
608.43	58561.01
608.63	59141.49
608.83	58995.43
609.03	58883.93
609.23	59047.69
609.43	59225.13
609.63	58947.83
609.84	58758.60
610.04	59299.51
610.24	59164.83
610.44	59189.25
610.64	58928.91
610.84	59264.78
611.04	59624.48
611.24	59264.94
611.44	58622.94
611.64	59250.36
611.85	59249.13
612.05	59254.78
612.25	59450.98
612.45	59104.38
612.65	59415.10
612.85	59508.57
613.05	59064.07
613.25	59597.45
613.45	59305.24
613.65	59359.23
613.85	58874.51
614.05	59351.61
614.25	59448.35
614.46	59061.78
614.66	58930.14
614.86	58783.34
615.06	59108.15
615.26	59334.57
615.46	58526.77
615.66	59393.22
615.86	59353.49
616.06	58962.74
616.26	58989.28
616.46	59583.03
616.66	59050.39
616.86	59634.47
617.06	59082.51
617.26	59589.75
617.46	59291.81
617.66	58999.19
617.86	58911.87
618.07	59197.36
618.27	59101.02
618.47	59111.42
618.67	59272.31
618.87	59333.26
619.07	58996.00
619.27	58939.39
619.47	58999.69
619.67	59465.23
619.87	58932.84
620.07	59509.06
620.27	59472.77
620.47	59021.97
620.67	59294.84
620.87	59306.88
621.07	59403.55
621.27	59311.30
621.47	58846.50
621.67	59239.71
621.87	58892.13
622.07	59314.83
622.27	59180.48
622.47	58822.82
622.67	58934.56
622.87	58615.81
623.07	58990.10
623.27	59319.09
623.47	58446.49
623.67	58927.11
623.87	59429.43
624.07	59317.20
624.27	58851.25
624.47	59198.09
624.67	59079.80
624.87	59236.27
625.07	58787.60
625.27	59304.01
625.47	58750.49
625.67	58730.09
625.87	59019.84
626.07	58868.12
626.27	59056.95
626.47	58967.00
626.67	58772.53
626.87	58419.21
627.07	59033.44
627.27	58788.09
627.47	58962.33
627.67	58691.51
627.87	58735.17
628.07	59129.53
628.27	58786.29
628.47	58552.49
628.67	59164.34
628.86	59192.03
629.06	58759.99
629.26	58706.91
629.46	59104.46
629.66	58972.41
629.86	58410.36
630.06	58899.09
630.26	58811.03
630.46	59149.11
630.66	58556.83
630.86	58709.61
631.06	58692.41
631.26	58381.45
631.46	59040.40
631.66	58926.45
631.86	58564.37
632.06	59034.75
632.26	58724.60
632.45	58752.70
632.65	58749.10
632.85	58905.97
633.05	58768.76
633.25	58899.83
633.45	58537.75
633.65	58736.24
633.85	59278.78
634.05	58251.85
634.25	58585.01
634.45	58520.54
634.65	58911.21
634.84	58454.27
635.04	58632.85
635.24	58240.46
635.44	58728.45
635.64	58364.24
635.84	58669.06
636.04	58460.09
636.24	58324.27
636.44	58502.36
636.64	57909.35
636.84	58846.42
637.03	58042.30
637.23	58526.03
637.43	58623.35
637.63	58326.48
637.83	58662.92
638.03	58609.67
638.23	58110.70
638.43	58450.99
638.62	58756.06
638.82	57664.41
639.02	58630.31
639.22	58288.47
639.42	58517.92
639.62	58098.74
639.82	58314.76
640.02	58320.50
640.21	58426.09
640.41	57793.84
640.61	58278.64
640.81	58176.98
641.01	58132.74
641.21	57880.18
641.41	58671.52
641.61	57952.27
641.80	57955.47
642.00	58391.44
642.20	58316.73
642.40	57627.79
642.60	58230.96
642.80	58235.63
642.99	57714.14
643.19	58127.25
643.39	57552.10
643.59	57979.47
643.79	57747.72
643.99	58142.08
644.19	57992.17
644.38	57481.73
644.58	57923.44
644.78	57695.29
644.98	57752.96
645.18	57908.61
645.38	58200.57
645.57	57665.88
645.77	57826.53
645.97	57609.61
646.17	57934.66
646.37	57809.49
646.56	57622.71
646.76	57636.72
646.96	57665.15
647.16	57380.15
647.36	57583.47
647.55	57348.20
647.75	57477.96
647.95	57105.64
648.15	57423.98
648.35	57385.89
648.55	57476.24
648.74	57302.90
648.94	57310.93
649.14	57649.34
649.34	57162.33
649.54	57079.76
649.73	57122.44
649.93	56882.82
650.13	57134.72
650.33	56857.18
650.52	57230.98
650.72	57510.08
650.92	57076.23
651.12	56853.17
651.32	57199.11
651.51	57295.37
651.71	57330.67
651.91	56887.90
652.11	56755.93
652.30	56686.38
652.50	57245.56
652.70	57240.24
652.90	56760.19
653.10	57166.34
653.29	56869.06
653.49	57326.99
653.69	56726.77
653.89	56974.98
654.08	56838.51
654.28	57210.74
654.48	56932.63
654.68	57133.90
654.87	56932.06
655.07	56615.03
655.27	57173.72
655.47	56695.48
655.66	56718.25
655.86	56553.18
656.06	57152.01
656.26	56118.85
656.45	56704.73
656.65	56585.29
656.85	56521.15
657.04	56205.11
657.24	56319.22
657.44	56115.74
657.64	56820.07
657.83	55737.76
658.03	56516.89
658.23	56305.95
658.43	56125.40
658.62	56276.22
658.82	55946.49
659.02	55896.11
659.21	56057.66
659.41	55821.98
659.61	56338.96
659.81	55908.24
660.00	55614.64
660.20	55998.43
660.40	55757.75
660.59	55949.28
660.79	55504.70
660.99	56062.24
661.19	56015.14
661.38	55988.11
661.58	55304.82
661.78	55752.51
661.97	55375.52
662.17	56019.97
662.37	55295.57
662.56	55306.13
662.76	55284.34
662.96	55437.86
663.15	55659.86
663.35	55490.04
663.55	55236.01
663.74	55040.06
663.94	55465.55
664.14	54894.74
664.33	55312.93
664.53	55054.72
664.73	55481.03
664.93	54806.35
665.12	55318.83
665.32	54981.49
665.52	55083.15
665.71	54868.28
665.91	55068.57
666.10	54725.82
666.30	55179.16
666.50	54598.85
666.69	54725.00
666.89	55025.23
667.09	55254.36
667.28	54737.86
667.48	54537.08
667.68	54544.86
667.87	54563.62
668.07	54115.36
668.27	54647.92
668.46	54672.25
668.66	54378.73
668.86	54742.78
669.05	54256.51
669.25	54524.63
669.44	54165.17
669.64	54065.88
669.84	54256.51
670.03	54636.69
670.23	54247.01
670.43	54179.91
670.62	54117.57
670.82	53945.46
671.01	54355.06
671.21	53869.69
671.41	53960.70
671.60	54188.68
671.80	54433.45
672.00	54010.75
672.19	54359.73
672.39	54256.59
672.58	54127.32
672.78	53989.54
672.98	54415.10
673.17	54132.73
673.37	53251.86
673.56	53572.49
673.76	53696.02
673.96	54015.01
674.15	53732.39
674.35	53917.61
674.54	53683.90
674.74	53714.86
674.94	53690.45
675.13	53766.63
675.33	53252.27
675.52	53821.60
675.72	53740.34
675.91	53633.93
676.11	53880.42
676.31	53291.34
676.50	53414.79
676.70	53226.63
676.89	53453.54
677.09	53605.09
677.28	53547.42
677.48	52927.54
677.68	53379.65
677.87	53069.59
678.07	53070.16
678.26	53072.37
678.46	53161.50
678.65	52976.61
678.85	53304.53
679.04	52688.83
679.24	53033.79
679.44	52711.60
679.63	52916.65
679.83	52700.38
680.02	52799.99
680.22	52467.08
680.41	52714.72
680.61	52523.27
680.80	52530.64
681.00	52658.44
681.19	52565.30
681.39	52316.84
681.59	52238.11
681.78	52141.37
681.98	52546.29
682.17	51948.20
682.37	52337.48
682.56	51958.36
682.76	52380.98
682.95	52124.74
683.15	52176.84
683.34	51889.14
683.54	52041.84
683.73	52069.20
683.93	51540.41
684.12	51906.83
684.32	52028.32
684.51	51431.87
684.71	51699.82
684.90	51612.74
685.10	51552.45
685.29	51405.08
685.49	51634.45
685.68	51546.06
685.88	51447.51
686.07	51082.65
686.27	51595.62
686.46	51342.49
686.66	51221.66
686.85	51501.91
687.05	51223.88
687.24	51125.25
687.44	51463.73
687.63	51369.61
687.83	50774.22
688.02	51357.98
688.22	51383.29
688.41	51101.57
688.61	51023.01
688.80	51077.24
689.00	50685.83
689.19	50565.09
689.39	51079.95
689.58	50927.25
689.77	50857.70
689.97	50981.15
690.16	50714.10
690.36	50185.88
690.55	50058.34
690.75	50696.73
690.94	50216.77
691.14	50509.95
691.33	49959.79
691.53	50413.37
691.72	50159.51
691.91	50284.92
692.11	50246.75
692.30	50275.09
692.50	50432.38
692.69	49950.45
692.89	49987.72
693.08	49920.14
693.28	49757.86
693.47	49921.12
693.66	49879.75
693.86	49768.18
694.05	49636.86
694.25	49689.95
694.44	49800.87
694.64	49721.98
694.83	49673.97
695.02	49676.02
695.22	49806.03
695.41	49437.72
695.61	49234.97
695.80	49215.64
695.99	49002.81
696.19	49159.36
696.38	49070.48
696.58	48687.84
696.77	49339.01
696.96	49123.32
697.16	48958.41
697.35	48981.10
697.55	49022.39
697.74	48767.46
697.93	49112.99
698.13	48668.58
698.32	49011.82
698.52	48755.17
698.71	48200.09
698.90	48924.74
699.10	48395.22
699.29	48514.25
699.49	48880.43
699.68	48436.10
699.87	48384.00
700.07	48696.36
700.26	48359.01
700.45	48360.49
700.65	48083.36
700.84	48397.68
701.04	47993.33
701.23	48210.41
701.42	47929.92
701.62	47805.08
701.81	47948.52
702.00	47776.41
702.20	47461.10
702.39	47692.52
702.58	47992.18
702.78	47678.51
702.97	47760.68
703.17	47813.76
703.36	47696.21
703.55	47544.09
703.75	47424.81
703.94	47480.52
704.13	47255.49
704.33	47081.08
704.52	47491.00
704.71	47267.20
704.91	47311.27
705.10	47094.11
705.29	47190.93
705.49	47265.23
705.68	47267.94
705.87	47138.67
706.07	46650.68
706.26	47084.44
706.45	46561.72
706.65	46323.99
706.84	46826.56
707.03	47110.82
707.23	46405.66
707.42	46313.42
707.61	46824.92
707.80	46371.26
708.00	46461.69
708.19	46232.40
708.38	46615.13
708.58	45769.81
708.77	46566.22
708.96	46083.80
709.16	45854.18
709.35	46598.25
709.54	46026.62
709.74	45885.31
709.93	45440.17
710.12	46187.59
710.31	46326.86
710.51	45754.90
710.70	45743.84
710.89	45824.53
711.09	45250.28
711.28	45221.20
711.47	45613.42
711.66	45505.05
711.86	45465.07
712.05	45428.53
712.24	45608.10
712.43	45178.27
712.63	44658.74
712.82	45294.68
713.01	45069.48
713.21	44747.30
713.40	44779.74
713.59	45159.60
713.78	44554.95
713.98	44928.67
714.17	44618.11
714.36	44687.74
714.55	44219.91
714.75	44300.84
714.94	44306.98
715.13	44646.05
715.32	43969.73
715.52	44304.45
715.71	44047.30
715.90	44060.16
716.09	43969.32
716.29	44368.75
716.48	44248.90
716.67	43667.53
716.86	44022.56
717.06	43907.63
717.25	44098.99
717.44	44042.55
717.63	43931.55
717.82	43395.47
718.02	43650.24
718.21	43778.04
718.40	43805.56
718.59	43555.13
718.79	43339.61
718.98	43337.39
719.17	43540.80
719.36	43627.63
719.55	43325.68
719.75	43208.95
719.94	43069.19
720.13	43455.28
720.32	43283.82
720.51	42938.70
720.71	43003.90
720.90	42522.71
721.09	42732.10
721.28	42521.89
721.47	42932.72
721.67	42737.18
721.86	42682.78
722.05	42679.01
722.24	42231.98
722.43	42701.62
722.63	42399.83
722.82	42373.54
723.01	42457.67
723.20	42084.53
723.39	42161.37
723.58	42448.82
723.78	41840.57
723.97	42324.22
724.16	41818.46
724.35	42015.64
724.54	41701.23
724.73	41951.49
724.93	41614.72
725.12	41900.05
725.31	41120.75
725.50	41474.64
725.69	41646.76
725.88	41360.29
726.08	40993.62
726.27	41436.39
726.46	40695.02
726.65	41527.07
726.84	40807.01
727.03	41035.40
727.23	41359.96
727.42	40945.53
727.61	40903.51
727.80	40698.55
727.99	40854.85
728.18	40948.40
728.37	40657.67
728.56	40481.71
728.76	40426.17
728.95	40728.69
729.14	40511.12
729.33	40485.64
729.52	40537.41
729.71	40352.68
729.90	40337.12
730.09	40030.91
730.29	40267.98
730.48	39691.76
730.67	40178.28
730.86	39693.24
731.05	40146.82
731.24	39796.05
731.43	39888.53
731.62	39620.41
731.81	39504.66
732.01	40034.51
732.20	39526.21
732.39	39937.19
732.58	39759.84
732.77	39105.64
732.96	39740.51
733.15	39710.03
733.34	39407.26
733.53	39549.72
733.72	39494.59
733.92	39342.30
734.11	39181.33
734.30	39253.09
734.49	39346.07
734.68	39037.56
734.87	39031.58
735.06	38893.88
735.25	39005.04
735.44	38525.73
735.63	38664.83
735.82	38722.17
736.01	38518.28
736.20	38550.31
736.40	38814.41
736.59	38602.08
736.78	38816.95
736.97	38452.50
737.16	38465.69
737.35	38613.55
737.54	38638.62
737.73	38312.66
737.92	38518.85
738.11	38608.55
738.30	38328.55
738.49	38183.31
738.68	38059.94
738.87	38240.25
739.06	38046.18
739.25	38104.02
739.44	38084.44
739.63	38002.03
739.82	37668.70
740.01	37953.20
740.20	37613.24
740.39	37654.12
740.59	37652.97
740.78	37655.51
740.97	37450.71
741.16	37239.94
741.35	37481.35
741.54	37218.23
741.73	37339.71
741.92	37032.03
742.11	37121.81
742.30	37274.10
742.49	36907.67
742.68	37201.27
742.87	37039.48
743.06	36611.13
743.25	36930.12
743.44	36612.44
743.63	37082.32
743.82	36638.90
744.01	36685.35
744.20	36383.23
744.39	36726.96
744.58	36619.81
744.77	36380.03
744.96	36067.02
745.15	36513.23
745.34	36287.38
745.53	36291.97
745.72	36123.88
745.91	36187.94
746.10	35842.65
746.29	36150.66
746.48	36156.56
746.67	36011.15
746.86	35992.31
747.04	35899.09
747.23	35708.38
747.42	35940.87
747.61	35613.28
747.80	36114.70
747.99	35459.10
748.18	35899.91
748.37	35701.50
748.56	35235.47
748.75	35384.15
748.94	35313.29
749.13	35376.45
749.32	35003.80
749.51	35156.17
749.70	35167.23
749.89	34993.31
750.08	35176.57
750.27	34706.60
750.46	35013.47
750.65	35180.42
750.84	34744.61
751.02	35033.78
751.21	34782.29
751.40	34934.41
751.59	34947.03
751.78	34847.50
751.97	34975.37
752.16	34704.63
752.35	35030.51
752.54	34573.97
752.73	34868.55
752.92	34515.48
753.11	34505.08
753.30	34532.60
753.49	34672.03
753.67	34505.49
753.86	34249.57
754.05	34437.33
754.24	34198.54
754.43	34109.57
754.62	34212.71
754.81	33897.73
755.00	34067.88
755.19	34038.06
755.38	33618.64
755.56	33984.73
755.75	34218.20
755.94	33719.07
756.13	33794.27
756.32	33905.27
756.51	33648.95
756.70	33728.90
756.89	33674.42
757.08	33611.67
757.26	33621.67
757.45	33502.07
757.64	33266.47
757.83	33576.61
758.02	33283.18
758.21	33290.55
758.40	33322.99
758.59	33345.11
758.77	33049.14
758.96	33162.18
759.15	33286.95
759.34	32996.54
759.53	32985.32
759.72	33043.32
759.91	32754.97
760.09	32927.41
760.28	32974.51
760.47	32612.51
760.66	32945.26
760.85	32463.91
761.04	32863.84
761.23	32701.23
761.41	32599.98
761.60	32770.45
761.79	32524.37
761.98	32305.64
762.17	32607.76
762.36	32171.13
762.54	32458.83
762.73	32290.24
762.92	32135.01
763.11	32437.29
763.30	32621.68
763.49	32440.48
763.67	32329.15
763.86	32368.56
764.05	32483.32
764.24	32267.55
764.43	32531.08
764.61	31994.92
764.80	32024.17
764.99	32415.50
765.18	31984.85
765.37	32027.69
765.55	32150.73
765.74	31937.66
765.93	31742.12
766.12	31918.08
766.31	31912.92
766.49	31827.24
766.68	31877.37
766.87	31742.70
767.06	31610.89
767.25	31679.70
767.43	31671.59
767.62	31429.68
767.81	31533.48
768.00	31320.65
768.19	31225.54
768.37	31387.82
768.56	31355.71
768.75	31381.11
768.94	31479.00
769.12	31157.71
769.31	31151.49
769.50	31084.32
769.69	31275.10
769.88	30822.75
770.06	31290.01
770.25	30962.50
770.44	30938.58
770.63	31065.97
770.81	31005.02
771.00	30803.09
771.19	30962.26
771.38	30845.93
771.56	31161.89
771.75	30509.98
771.94	30922.44
772.13	30853.22
772.31	30591.90
772.50	30945.79
772.69	30628.60
772.88	30990.60
773.06	30526.78
773.25	30680.62
773.44	30650.15
773.62	30528.82
773.81	30613.12
774.00	30431.91
774.19	30499.91
774.37	30276.02
774.56	30627.62
774.75	30106.37
774.94	30432.41
775.12	30108.25
775.31	30343.36
775.50	30224.58
775.68	30126.11
775.87	29980.05
776.06	29847.59
776.25	30094.16
776.43	29792.05
776.62	30161.25
776.81	29762.06
776.99	29927.13
777.18	29896.33
777.37	29605.19
777.55	29789.10
777.74	29954.00
777.93	29834.48
778.12	29836.45
778.30	29660.08
778.49	29704.64
778.68	29770.17
778.86	29745.19
779.05	29787.38
779.24	29822.03
779.42	29612.56
779.61	29502.46
779.80	29623.46
779.98	29745.93
780.17	29797.78
780.36	29431.28
780.54	29711.85
780.73	29113.19
780.92	29624.11
781.10	29325.68
781.29	29302.66
781.48	29107.62
781.66	29162.17
781.85	29260.72
782.04	28994.08
782.22	29184.54
782.41	28947.63
782.60	29143.66
782.78	29094.84
782.97	29190.03
783.16	28818.03
783.34	28842.53
783.53	28896.43
783.71	28729.56
783.90	28785.43
784.09	28755.94
784.27	28783.87
784.46	28678.44
784.65	28750.70
784.83	28587.92
785.02	28477.74
785.20	28844.41
785.39	28211.92
785.58	28721.29
785.76	28565.40
785.95	28593.58
786.14	28710.23
786.32	28766.18
786.51	28566.87
786.69	28840.48
786.88	28669.84
787.07	28594.48
787.25	28654.28
787.44	28631.75
787.62	28561.63
787.81	28685.32
788.00	28593.00
788.18	28376.08
788.37	28319.07
788.55	28819.02
788.74	28447.76
788.93	28620.45
789.11	28769.86
789.30	28573.92
789.48	28276.88
789.67	28590.54
789.86	28518.87
790.04	28540.57
790.23	28393.28
790.41	28286.30
790.60	28527.55
790.78	28517.72
790.97	28224.78
791.16	28431.79
791.34	28700.81
791.53	28264.18
791.71	28611.19
791.90	28381.49
792.08	28490.60
792.27	28554.34
792.46	28564.17
792.64	28572.20
792.83	28532.87
793.01	28626.26
793.20	28499.86
793.38	28535.58
793.57	28539.84
793.75	28488.31
793.94	28709.08
794.12	28870.22
794.31	28631.91
794.50	28763.56
794.68	28899.38
794.87	28717.68
795.05	29003.91
795.24	28751.43
795.42	28681.47
795.61	29060.76
795.79	28973.68
795.98	28694.83
796.16	28865.38
796.35	28895.53
796.53	28570.97
796.72	28860.14
796.90	28827.04
797.09	28740.70
797.27	28716.21
797.46	28647.56
797.64	28833.19
797.83	28756.68
798.01	28832.78
798.20	28998.66
798.38	28842.36
798.57	29032.91
798.75	28985.15
798.94	28593.49
799.12	29295.62
799.31	28985.31
799.49	28956.48
799.68	28837.86
799.86	28757.82
800.05	28789.61
800.23	28744.55
800.42	28647.15
800.60	28960.90
800.79	28581.12
800.97	28639.78
801.16	28918.63
801.34	28529.43
801.53	28501.25
801.71	28610.04
801.90	28379.60
802.08	28660.01
802.27	28513.13
802.45	28387.14
802.64	28523.37
802.82	28671.97
803.00	28394.84
803.19	28524.19
803.37	28770.52
803.56	28470.29
803.74	28529.84
803.93	28568.75
804.11	28367.40
804.30	28277.12
804.48	28455.38
804.67	28456.03
804.85	28383.13
805.03	28628.64
805.22	28334.38
805.40	28256.97
805.59	28412.13
805.77	28494.37
805.96	28107.22
806.14	28247.88
806.32	28255.01
806.51	28543.44
806.69	28291.95
806.88	28243.54
807.06	28235.43
807.25	28272.62
807.43	28207.33
807.61	28236.33
807.80	28070.20
807.98	28326.77
808.17	28103.87
808.35	27979.59
808.53	28274.09
808.72	28058.15
808.90	28010.31
809.09	28004.50
809.27	28104.44
809.45	27832.06
809.64	27962.88
809.82	27748.75
810.01	27853.69
810.19	27934.21
810.37	27736.05
810.56	27720.08
810.74	27868.76
810.93	27520.28
811.11	27664.94
811.29	27565.99
811.48	27631.19
811.66	27624.23
811.84	27632.75
812.03	27518.47
812.21	27471.04
812.40	27599.57
812.58	27755.96
812.76	27441.63
812.95	27632.10
813.13	27282.79
813.31	27403.21
813.50	27423.45
813.68	27336.94
813.86	27447.86
814.05	27490.13
814.23	27176.22
814.42	27310.32
814.60	27148.12
814.78	27290.00
814.97	27204.89
815.15	27217.59
815.33	27302.21
815.52	27070.87
815.70	27107.00
815.88	27154.02
816.07	26868.53
816.25	26944.72
816.43	26942.99
816.62	26679.05
816.80	26861.40
816.98	26794.89
817.17	26703.05
817.35	26712.97
817.53	26720.83
817.72	26813.89
817.90	26429.04
818.08	26536.60
818.26	26632.28
818.45	26469.34
818.63	26629.90
818.81	26579.77
819.00	26287.48
819.18	26567.07
819.36	26532.91
819.55	26494.65
819.73	26311.16
819.91	26535.37
820.09	26358.50
820.28	26517.84
820.46	26217.77
820.64	26629.41
820.83	26288.14
821.01	26313.45
821.19	26267.49
821.38	26250.21
821.56	26148.79
821.74	26277.98
821.92	26053.77
822.11	26301.24
822.29	25947.68
822.47	26029.03
822.65	26115.78
822.84	26172.30
823.02	25819.64
823.20	26197.53
823.39	25800.15
823.57	25909.34
823.75	25901.23
823.93	25773.44
824.12	25841.27
824.30	25695.54
824.48	25699.14
824.66	25885.42
824.85	25334.52
825.03	25684.64
825.21	25769.35
825.39	25586.75
825.58	25654.33
825.76	25567.33
825.94	25685.46
826.12	25504.83
826.31	25379.25
826.49	25489.51
826.67	25536.37
826.85	25400.55
827.03	25367.29
827.22	25476.40
827.40	25286.43
827.58	25190.59
827.76	25328.21
827.95	25092.20
828.13	25181.58
828.31	25102.12
828.49	25184.69
828.67	25109.33
828.86	25004.63
829.04	25047.56
829.22	24932.05
829.40	24855.87
829.58	24799.26
829.77	24820.73
829.95	24842.76
830.13	24829.33
830.31	24781.90
830.49	24831.21
830.68	24896.50
830.86	24810.08
831.04	24631.82
831.22	24699.98
831.40	24610.44
831.59	24760.84
831.77	24495.59
831.95	24681.38
832.13	24297.43
832.31	24578.57
832.50	24520.00
832.68	24392.62
832.86	24384.75
833.04	24469.79
833.22	24108.52
833.40	24625.60
833.59	24312.58
833.77	24494.12
833.95	23875.55
834.13	24563.58
834.31	24190.44
834.49	24206.09
834.67	24237.46
834.86	24254.83
835.04	24147.03
835.22	24214.94
835.40	24201.50
835.58	24094.35
835.76	24091.08
835.95	24057.73
836.13	23970.66
836.31	23850.07
836.49	24090.50
836.67	23993.51
836.85	23927.16
837.03	23861.05
837.21	23870.96
837.40	23692.70
837.58	23534.19
837.76	23728.67
837.94	23625.20
838.12	23804.11
838.30	23568.11
838.48	23541.89
838.66	23552.54
838.85	23507.40
839.03	23535.01
839.21	23482.42
839.39	23438.35
839.57	23555.33
839.75	23438.10
839.93	23441.46
840.11	23394.68
840.29	23324.89
840.47	23336.36
840.66	23174.90
840.84	23220.93
841.02	23047.27
841.20	23196.77
841.38	23105.84
841.56	23110.59
841.74	23345.45
841.92	23074.87
842.10	22977.64
842.28	23119.76
842.46	22983.37
842.65	23001.23
842.83	23176.70
843.01	23261.16
843.19	22923.00
843.37	23141.80
843.55	22947.24
843.73	23003.36
843.91	22948.06
844.09	22813.80
844.27	22986.89
844.45	22696.65
844.63	22579.18
844.81	22629.48
844.99	22615.88
845.17	22568.21
845.35	22663.89
845.54	22545.10
845.72	22535.77
845.90	22539.45
846.08	22564.77
846.26	22386.84
846.44	22574.43
846.62	22274.69
846.80	22237.58
846.98	22365.87
847.16	22290.50
847.34	22327.45
847.52	22337.44
847.70	22202.68
847.88	22330.48
848.06	22170.24
848.24	22262.98
848.42	22232.67
848.60	22035.16
848.78	22233.65
848.96	22097.75
849.14	22093.16
849.32	22103.15
849.50	21924.57
849.68	22017.30
849.86	22019.02
850.04	21782.52
850.22	21806.28
850.40	21642.85
850.58	21878.94
850.76	22238.81
850.94	21483.19
851.12	21880.58
851.30	21738.37
851.48	21922.03
851.66	21663.41
851.84	21592.39
852.02	21569.29
852.20	21714.69
852.38	21392.10
852.56	21497.69
852.74	21461.07
852.92	21334.51
853.10	21291.67
853.28	21410.53
853.46	21061.80
853.64	21310.34
853.82	21133.97
854.00	21191.40
854.18	21044.11
854.36	20999.22
854.54	21116.28
854.72	20970.71
854.90	20968.17
855.07	21034.61
855.25	20995.69
855.43	21061.56
855.61	21010.11
855.79	20934.34
855.97	21017.89
856.15	21017.40
856.33	20849.22
856.51	21047.55
856.69	20737.24
856.87	20987.67
857.05	20875.60
857.23	20912.79
857.41	20723.56
857.59	20822.76
857.77	20800.48
857.94	20777.71
858.12	20872.90
858.30	20713.57
858.48	20690.30
858.66	20555.87
858.84	20773.20
859.02	20496.81
859.20	20405.55
859.38	20711.03
859.56	20559.39
859.74	20462.40
859.92	20478.29
860.09	20302.99
860.27	20440.78
860.45	20175.28
860.63	20194.28
860.81	20301.43
860.99	20148.98
861.17	19912.89
861.35	19630.03
861.53	19561.79
861.70	19481.34
861.88	19862.76
862.06	19837.44
862.24	19501.33
862.42	19520.01
862.60	19850.88
862.78	19851.04
862.96	19926.74
863.14	19834.91
863.31	19873.41
863.49	19795.17
863.67	19811.39
863.85	19755.12
864.03	19862.02
864.21	19746.35
864.39	19805.09
864.56	19547.04
864.74	19654.19
864.92	19534.10
865.10	19489.04
865.28	19573.17
865.46	19743.07
865.64	19300.88
865.81	19532.13
865.99	19269.83
866.17	19488.31
866.35	19352.16
866.53	19433.75
866.71	19360.10
866.88	19397.13
867.06	19190.20
867.24	19246.89
867.42	19107.38
867.60	19118.61
867.78	18989.42
867.95	19122.46
868.13	18860.81
868.31	19002.69
868.49	18966.24
868.67	18802.40
868.84	18787.74
869.02	18888.83
869.20	18580.24
869.38	18842.38
869.56	18682.31
869.73	18591.87
869.91	18693.12
870.09	18649.46
870.27	18525.84
870.45	18591.05
870.62	18479.15
870.80	18692.96
870.98	18558.45
871.16	18635.20
871.34	18533.05
871.51	18586.71
871.69	18376.26
871.87	18505.77
872.05	18402.15
872.23	18385.68
872.40	18249.45
872.58	18340.71
872.76	18114.69
872.94	18073.82
873.11	18163.03
873.29	18089.71
873.47	18184.73
873.65	18033.10
873.83	18053.75
874.00	18074.96
874.18	18149.75
874.36	17979.20
874.54	18008.94
874.71	17861.24
874.89	17713.95
875.07	17836.91
875.25	17777.35
875.42	17771.70
875.60	17736.31
875.78	17931.60
875.96	17717.96
876.13	17876.88
876.31	17646.53
876.49	17643.50
876.66	17537.99
876.84	17833.55
877.02	17614.25
877.20	17580.99
877.37	17643.33
877.55	17585.17
877.73	17478.59
877.91	17465.57
878.08	17637.76
878.26	17504.40
878.44	17431.49
878.61	17479.00
878.79	17369.72
878.97	17364.65
879.15	17496.86
879.32	17481.87
879.50	17375.46
879.68	17581.98
879.85	17359.07
880.03	17485.07
880.21	17315.17
880.38	17505.30
880.56	17328.85
880.74	17502.51
880.92	17279.04
881.09	17441.57
881.27	17371.53
881.45	17387.34
881.62	17372.84
881.80	17301.73
881.98	17244.06
882.15	17379.47
882.33	17210.15
882.51	17260.94
882.68	17089.07
882.86	17288.79
883.04	17092.35
883.21	17096.36
883.39	17255.20
883.57	17067.20
883.74	17118.48
883.92	17111.84
884.10	17086.53
884.27	17134.37
884.45	17018.70
884.63	17184.67
884.80	17088.58
884.98	17115.28
885.16	17134.04
885.33	17116.10
885.51	17101.77
885.69	17052.04
885.86	17007.40
886.04	17082.76
886.21	16903.77
886.39	17135.27
886.57	16778.84
886.74	17170.99
886.92	17075.96
887.10	17095.54
887.27	17054.66
887.45	17084.56
887.62	17020.75
887.80	17034.68
887.98	17199.66
888.15	17151.33
888.33	17065.89
888.51	17214.73
888.68	17139.78
888.86	17197.29
889.03	17089.23
889.21	17171.15
889.39	17222.02
889.56	17188.60
889.74	17152.23
889.91	17156.08
890.09	17136.26
890.27	17139.29
890.44	17076.13
890.62	17173.28
890.79	17145.59
890.97	17164.27
891.14	17112.66
891.32	17080.80
891.50	17063.43
891.67	17134.62
891.85	17112.74
892.02	17048.93
892.20	17125.85
892.38	17066.30
892.55	16946.78
892.73	17082.68
892.90	16942.76
893.08	16991.34
893.25	16939.98
893.43	17128.47
893.60	16910.41
893.78	17044.26
893.96	16996.09
894.13	17087.60
894.31	17137.73
894.48	17067.94
894.66	17125.20
894.83	17102.01
895.01	17106.93
895.18	17123.23
895.36	17008.54
895.53	17121.67
895.71	16977.33
895.89	16992.00
896.06	16875.67
896.24	17025.09
896.41	16975.45
896.59	16981.67
896.76	16811.04
896.94	16925.07
897.11	16902.62
897.29	16980.20
897.46	16819.39
897.64	16885.01
897.81	16833.48
897.99	16739.85
898.16	16947.76
898.34	16851.42
898.51	16834.71
898.69	16749.11
898.86	16829.88
899.04	16809.89
899.21	16730.02
899.39	16781.88
899.56	16629.42
899.74	16823.00
899.91	16695.45
900.09	16574.70
900.26	16673.09
900.44	16555.29
900.61	16561.92
900.79	16760.82
900.96	16600.59
901.14	16594.53
901.31	16493.36
901.49	16533.25
901.66	16543.25
901.84	16513.43
902.01	16422.25
902.19	16495.08
902.36	16324.93
902.54	16407.42
902.71	16339.10
902.88	16409.06
903.06	16198.86
903.23	16475.50
903.41	16256.20
903.58	16204.76
903.76	16129.88
903.93	16241.21
904.11	16286.10
904.28	16220.65
904.45	16150.45
904.63	16149.54
904.80	15986.20
904.98	16083.44
905.15	15865.78
905.33	16014.30
905.50	15900.43
905.68	15965.23
905.85	15918.04
906.02	15869.63
906.20	15927.87
906.37	15740.77
906.55	15676.46
906.72	15801.55
906.90	15671.88
907.07	15575.62
907.24	15616.83
907.42	15525.24
907.59	15503.53
907.77	15463.56
907.94	15440.46
908.11	15490.02
908.29	15414.82
908.46	15421.12
908.64	15311.27
908.81	15349.61
908.98	15174.30
909.16	15252.21
909.33	15147.43
909.51	15071.74
909.68	15040.69
909.85	15000.96
910.03	15049.95
910.20	14905.94
910.37	14929.53
910.55	14873.50
910.72	14815.74
910.90	14729.40
911.07	14710.23
911.24	14574.16
911.42	14784.37
911.59	14565.89
911.76	14572.28
911.94	14522.97
912.11	14494.29
912.29	14528.29
912.46	14423.43
912.63	14457.68
912.81	14301.62
912.98	14371.25
913.15	14235.02
913.33	14304.00
913.50	14288.92
913.67	14157.69
913.85	14123.61
914.02	14156.62
914.19	14144.09
914.37	14056.27
914.54	14075.20
914.71	14054.72
914.89	14028.34
915.06	14002.13
915.23	13925.78
915.41	13898.17
915.58	13844.51
915.75	13817.97
915.93	13752.19
916.10	13664.95
916.27	13631.53
916.45	13658.89
916.62	13507.34
916.79	13591.55
916.97	13500.05
917.14	13529.78
917.31	13458.35
917.49	13457.94
917.66	13467.93
917.83	13404.28
918.00	13391.42
918.18	13319.66
918.35	13236.10
918.52	13335.31
918.70	13209.81
918.87	13138.95
919.04	13190.39
919.21	13098.73
919.39	12930.22
919.56	13087.01
919.73	12906.30
919.91	12974.13
920.08	12941.69
920.25	12806.28
920.42	12975.11
920.60	12815.53
920.77	12749.75
920.94	12790.47
921.11	12636.29
921.29	12733.29
921.46	12574.77
921.63	12669.06
921.81	12515.06
921.98	12556.67
922.15	12516.61
922.32	12522.67
922.50	12463.86
922.67	12481.63
922.84	12402.42
923.01	12353.68
923.19	12326.81
923.36	12327.63
923.53	12149.78
923.70	12209.50
923.87	12159.53
924.05	12137.33
924.22	12005.36
924.39	12054.67
924.56	11952.27
924.74	11961.61
924.91	12003.06
925.08	11958.91
925.25	11915.00
925.43	11931.47
925.60	11779.42
925.77	11920.08
925.94	11801.79
926.11	11802.77
926.29	11685.96
926.46	11695.95
926.63	11698.65
926.80	11674.81
926.97	11560.70
927.15	11599.45
927.32	11501.31
927.49	11477.31
927.66	11459.94
927.83	11477.47
928.01	11356.07
928.18	11317.57
928.35	11234.42
928.52	11306.59
928.69	11150.45
928.87	11195.59
929.04	11149.72
929.21	11190.43
929.38	11073.86
929.55	11090.98
929.72	10973.10
929.90	11020.45
930.07	11012.01
930.24	10906.17
930.41	10875.45
930.58	10885.69
930.75	10877.09
930.93	10815.49
931.10	10801.15
931.27	10700.55
931.44	10735.70
931.61	10688.68
931.78	10713.99
931.95	10679.09
932.13	10590.05
932.30	10691.38
932.47	10517.38
932.64	10598.48
932.81	10529.59
932.98	10549.17
933.15	10491.50
933.33	10412.77
933.50	10471.43
933.67	10387.63
933.84	10386.15
934.01	10361.49
934.18	10323.73
934.35	10372.06
934.52	10343.80
934.70	10343.88
934.87	10277.36
935.04	10198.15
935.21	10197.74
935.38	10157.84
935.55	10122.54
935.72	10189.46
935.89	10072.89
936.06	10092.55
936.24	9949.69
936.41	10085.10
936.58	9960.75
936.75	10006.05
936.92	9946.41
937.09	9937.24
937.26	9839.67
937.43	9878.09
937.60	9873.91
937.77	9788.31
937.94	9797.97
938.12	9815.67
938.29	9743.42
938.46	9797.65
938.63	9646.26
938.80	9733.75
938.97	9654.94
939.14	9615.54
939.31	9582.94
939.48	9622.59
939.65	9508.39
939.82	9492.91
939.99	9505.93
940.16	9477.43
940.33	9464.97
940.50	9412.79
940.67	9381.25
940.85	9392.23
941.02	9370.60
941.19	9361.35
941.36	9341.11
941.53	9328.17
941.70	9292.04
941.87	9212.50
942.04	9192.10
942.21	9227.16
942.38	9190.96
942.55	9104.45
942.72	9163.43
942.89	9120.42
943.06	9048.01
943.23	9051.12
943.40	9009.75
943.57	9031.62
943.74	9001.40
943.91	8980.26
944.08	8940.86
944.25	9009.51
944.42	8856.73
944.59	8877.21
944.76	8875.16
944.93	8856.97
945.10	8831.01
945.27	8828.71
945.44	8728.61
945.61	8766.29
945.78	8680.19
945.95	8708.13
946.12	8648.57
946.29	8667.82
946.46	8628.50
946.63	8601.22
946.80	8595.65
946.97	8568.46
947.14	8498.99
947.31	8579.84
947.48	8485.72
947.65	8454.18
947.82	8501.36
947.99	8534.38
948.16	8392.41
948.33	8512.75
948.50	8373.73
948.67	8420.84
948.84	8373.24
949.01	8308.12
949.18	8342.69
949.35	8389.14
949.52	8247.50
949.68	8277.73
949.85	8252.90
950.02	8257.66
950.19	8202.03
950.36	8213.83
950.53	8138.71
950.70	8122.82
950.87	8121.92
951.04	8197.69
951.21	8063.43
951.38	8058.76
951.55	8041.14
951.72	8040.65
951.89	7990.35
952.06	8041.88
952.23	7995.19
952.39	7947.84
952.56	7891.97
952.73	7958.98
952.90	7848.96
953.07	7958.90
953.24	7839.13
953.41	7832.01
953.58	7756.97
953.75	7817.51
953.92	7792.44
954.09	7741.90
954.25	7700.20
954.42	7688.48
954.59	7650.88
954.76	7634.01
954.93	7578.55
955.10	7632.62
955.27	7573.31
955.44	7630.90
955.61	7582.15
955.77	7628.52
955.94	7549.55
956.11	7583.63
956.28	7553.73
956.45	7541.11
956.62	7553.32
956.79	7543.82
956.96	7526.61
957.12	7532.67
957.29	7504.99
957.46	7471.81
957.63	7418.81
957.80	7446.09
957.97	7404.80
958.14	7437.65
958.30	7326.40
958.47	7332.87
958.64	7320.91
958.81	7331.48
958.98	7278.07
959.15	7267.26
959.32	7284.54
959.48	7242.76
959.65	7179.28
959.82	7212.62
959.99	7130.78
960.16	7177.64
960.33	7116.77
960.49	7143.40
960.66	7068.85
960.83	7098.92
961.00	7086.46
961.17	7090.97
961.33	7035.35
961.50	7041.82
961.67	7025.35
961.84	7042.39
962.01	6986.77
962.18	7044.19
962.34	6955.15
962.51	6985.21
962.68	6903.37
962.85	6976.77
963.02	6892.07
963.18	6937.13
963.35	6904.60
963.52	6894.77
963.69	6888.63
963.86	6880.36
964.02	6797.95
964.19	6834.32
964.36	6798.93
964.53	6784.51
964.69	6740.85
964.86	6799.58
965.03	6702.59
965.20	6777.06
965.37	6635.17
965.53	6663.11
965.70	6630.67
965.87	6662.78
966.04	6623.70
966.20	6620.10
966.37	6588.15
966.54	6537.94
966.71	6594.38
966.87	6540.23
967.04	6527.37
967.21	6519.18
967.38	6499.93
967.54	6515.33
967.71	6491.57
967.88	6494.93
968.05	6476.17
968.21	6449.79
968.38	6403.51
968.55	6421.94
968.72	6387.53
968.88	6351.82
969.05	6378.11
969.22	6335.43
969.39	6340.76
969.55	6346.16
969.72	6281.28
969.89	6315.20
970.05	6336.82
970.22	6283.09
970.39	6267.28
970.56	6309.79
970.72	6265.72
970.89	6264.65
971.06	6244.99
971.22	6221.16
971.39	6241.64
971.56	6255.40
971.73	6194.20
971.89	6201.41
972.06	6177.00
972.23	6182.24
972.39	6106.06
972.56	6157.42
972.73	6067.31
972.89	6114.09
973.06	6112.53
973.23	6075.91
973.39	6049.62
973.56	6061.00
973.73	6027.58
973.89	6054.45
974.06	5984.57
974.23	6023.32
974.39	5982.36
974.56	5981.05
974.73	5935.10
974.89	5924.86
975.06	5932.80
975.23	5957.70
975.39	5908.06
975.56	5888.24
975.73	5910.68
975.89	5883.90
976.06	5864.89
976.23	5847.93
976.39	5847.61
976.56	5833.43
976.73	5839.66
976.89	5817.95
977.06	5772.40
977.23	5772.24
977.39	5780.19
977.56	5765.52
977.72	5718.83
977.89	5741.52
978.06	5722.19
978.22	5685.24
978.39	5698.35
978.56	5690.08
978.72	5660.18
978.89	5685.16
979.05	5659.52
979.22	5659.93
979.39	5633.22
979.55	5646.58
979.72	5577.11
979.88	5603.73
980.05	5559.91
980.22	5599.15
980.38	5558.60
980.55	5564.58
980.71	5517.47
980.88	5550.57
981.05	5526.65
981.21	5528.53
981.38	5509.69
981.54	5540.00
981.71	5495.19
981.88	5512.64
982.04	5473.24
982.21	5488.23
982.37	5448.25
982.54	5470.62
982.70	5413.93
982.87	5417.86
983.04	5369.45
983.20	5430.89
983.37	5355.93
983.53	5407.13
983.70	5371.90
983.86	5375.59
984.03	5345.94
984.20	5350.69
984.36	5322.83
984.53	5356.50
984.69	5299.73
984.86	5288.10
985.02	5284.01
985.19	5270.90
985.35	5272.21
985.52	5270.32
985.68	5222.40
985.85	5231.58
986.02	5225.43
986.18	5233.63
986.35	5225.02
986.51	5237.31
986.68	5204.38
986.84	5189.63
987.01	5179.39
987.17	5194.63
987.34	5182.84
987.50	5149.41
987.67	5159.82
987.83	5152.94
988.00	5127.13
988.16	5102.31
988.33	5110.91
988.49	5120.58
988.66	5065.94
988.82	5073.39
988.99	5062.41
989.15	5073.31
989.32	5020.31
989.48	5026.37
989.65	5000.98
989.81	5004.01
989.98	4981.15
990.14	4975.66
990.31	4958.62
990.47	4963.62
990.64	4956.33
990.80	4961.25
990.97	4950.76
991.13	4960.84
991.30	4930.61
991.46	4921.76
991.63	4896.61
991.79	4939.86
991.95	4851.64
992.12	4913.32
992.28	4874.98
992.45	4877.93
992.61	4850.08
992.78	4850.25
992.94	4814.53
993.11	4843.86
993.27	4831.81
993.44	4826.90
993.60	4808.79
993.76	4813.63
993.93	4807.48
994.09	4820.10
994.26	4811.91
994.42	4776.03
994.59	4752.52
994.75	4784.14
994.91	4739.00
995.08	4738.02
995.24	4718.03
995.41	4724.83
995.57	4719.50
995.74	4704.59
995.90	4674.94
996.06	4701.56
996.23	4693.78
996.39	4680.51
996.56	4627.59
996.72	4658.72
996.88	4664.37
997.05	4667.48
997.21	4635.78
997.38	4661.34
997.54	4618.66
997.70	4632.18
997.87	4622.43
998.03	4617.10
998.20	4553.29
998.36	4582.45
998.52	4555.50
998.69	4608.18
998.85	4534.94
999.02	4574.92
999.18	4537.15
999.34	4565.50
999.51	4542.97
999.67	4544.61
999.83	4522.73
1000.00	4514.87
1000.16	4496.93
1000.33	4498.98
1000.49	4469.24
1000.65	4524.45
1000.82	4493.90
1000.98	4465.15
1001.14	4461.62
1001.31	4480.96
1001.47	4471.86
1001.63	4463.83
1001.80	4440.41
1001.96	4419.84
1002.12	4419.52
1002.29	4422.14
1002.45	4412.47
1002.61	4417.63
1002.78	4410.42
1002.94	4399.28
1003.10	4379.70
1003.27	4413.54
1003.43	4373.15
1003.59	4382.41
1003.76	4355.78
1003.92	4346.28
1004.08	4338.50
1004.25	4365.29
1004.41	4327.93
1004.57	4361.03
1004.74	4293.28
1004.90	4347.43
1005.06	4319.08
1005.23	4301.47
1005.39	4312.12
1005.55	4314.58
1005.71	4287.71
1005.88	4298.36
1006.04	4320.89
1006.20	4279.52
1006.37	4246.09
1006.53	4269.03
1006.69	4267.23
1006.85	4268.13
1007.02	4222.50
1007.18	4221.85
1007.34	4215.62
1007.51	4239.13
1007.67	4213.25
1007.83	4214.06
1007.99	4186.87
1008.16	4177.45
1008.32	4173.02
1008.48	4204.73
1008.64	4180.97
1008.81	4181.30
1008.97	4162.37
1009.13	4153.36
1009.29	4154.26
1009.46	4172.61
1009.62	4152.54
1009.78	4147.38
1009.95	4146.73
1010.11	4124.20
1010.27	4126.90
1010.43	4135.01
1010.59	4110.03
1010.76	4107.90
1010.92	4108.63
1011.08	4101.92
1011.24	4086.35
1011.41	4110.27
1011.57	4081.03
1011.73	4090.61
1011.89	4054.73
1012.06	4076.93
1012.22	4043.43
1012.38	4073.25
1012.54	4038.51
1012.70	4057.52
1012.87	4019.75
1013.03	4041.95
1013.19	4023.19
1013.35	4021.39
1013.51	3988.46
1013.68	4029.42
1013.84	3988.30
1014.00	4002.63
1014.16	3973.31
1014.32	3982.40
1014.49	3975.68
1014.65	4007.06
1014.81	3940.37
1014.97	3982.56
1015.13	3955.12
1015.30	3958.15
1015.46	3946.68
1015.62	3948.16
1015.78	3933.90
1015.94	3947.17
1016.10	3917.60
1016.27	3931.61
1016.43	3912.69
1016.59	3939.96
1016.75	3911.37
1016.91	3909.98
1017.07	3889.09
1017.24	3907.52
1017.40	3870.01
1017.56	3900.07
1017.72	3865.50
1017.88	3875.90
1018.04	3875.82
1018.21	3894.42
1018.37	3860.58
1018.53	3875.41
1018.69	3856.08
1018.85	3852.72
1019.01	3837.24
1019.17	3853.70
1019.34	3839.53
1019.50	3844.77
1019.66	3809.14
1019.82	3836.26
1019.98	3811.60
1020.14	3846.99
1020.30	3808.98
1020.46	3809.63
1020.63	3794.23
1020.79	3799.15
1020.95	3814.96
1021.11	3807.42
1021.27	3806.68
1021.43	3796.61
1021.59	3811.52
1021.75	3773.75
1021.91	3753.93
1022.07	3771.95
1022.24	3744.67
1022.40	3749.42
1022.56	3723.04
1022.72	3757.04
1022.88	3739.18
1023.04	3751.39
1023.20	3715.02
1023.36	3714.36
1023.52	3735.09
1023.68	3743.69
1023.84	3714.61
1024.01	3720.26
1024.17	3689.95
1024.33	3714.69
1024.49	3697.40
1024.65	3701.99
1024.81	3691.26
1024.97	3713.21
1025.13	3711.25
1025.29	3682.41
1025.45	3666.11
1025.61	3703.79
1025.77	3677.25
1025.93	3678.73
1026.09	3666.27
1026.25	3689.87
1026.41	3651.86
1026.57	3658.98
1026.73	3668.08
1026.90	3647.43
1027.06	3665.13
1027.22	3655.54
1027.38	3664.80
1027.54	3679.87
1027.70	3655.71
1027.86	3661.85
1028.02	3631.21
1028.18	3650.05
1028.34	3646.53
1028.50	3638.91
1028.66	3624.82
1028.82	3641.62
1028.98	3622.53
1029.14	3612.21
1029.30	3608.60
1029.46	3627.36
1029.62	3604.10
1029.78	3601.48
1029.94	3590.01
1030.10	3612.70
1030.26	3579.36
1030.42	3599.84
1030.58	3584.68
1030.74	3583.37
1030.90	3563.30
1031.06	3573.46
1031.22	3578.87
1031.38	3586.40
1031.54	3563.30
1031.70	3582.72
1031.86	3560.43
1032.02	3552.00
1032.18	3552.49
1032.34	3550.03
1032.50	3539.38
1032.66	3567.23
1032.82	3535.70
1032.98	3553.06
1033.14	3535.70
1033.30	3553.06
1033.45	3541.02
1033.61	3557.49
1033.77	3542.33
1033.93	3543.48
1034.09	3504.16
1034.25	3528.32
1034.41	3533.97
1034.57	3517.51
1034.73	3515.54
1034.89	3532.17
1035.05	3512.35
1035.21	3518.16
1035.37	3508.99
1035.53	3526.27
1035.69	3502.27
1035.85	3532.25
1036.01	3501.04
1036.16	3499.41
1036.32	3508.83
1036.48	3486.71
1036.64	3485.40
1036.80	3506.12
1036.96	3479.17
1037.12	3489.57
1037.28	3480.15
1037.44	3475.16
1037.60	3476.71
1037.76	3471.63
1037.91	3479.09
1038.07	3458.53
1038.23	3460.74
1038.39	3457.14
1038.55	3460.17
1038.71	3472.21
1038.87	3452.63
1039.03	3458.77
1039.19	3437.97
1039.35	3452.88
1039.50	3456.48
1039.66	3463.12
1039.82	3439.77
1039.98	3451.97
1040.14	3437.72
1040.30	3448.70
1040.46	3421.75
1040.62	3431.00
1040.77	3441.65
1040.93	3447.06
1041.09	3431.49
1041.25	3430.92
1041.41	3419.29
1041.57	3421.91
1041.73	3421.91
1041.88	3421.91

