SpectraSuite Data File
++++++++++++++++++++++++++++++++++++
Date: Tue Sep 20 12:00:34 EDT 2022
User: Laboratoire
Dark Spectrum Present: No
Reference Spectrum Present: No
Number of Sampled Component Spectra: 1
Spectrometers: FLMT00174
Integration Time (usec): 15000 (FLMT00174)
Spectra Averaged: 25 (FLMT00174)
Boxcar Smoothing: 0 (FLMT00174)
Correct for Electrical Dark: No (FLMT00174)
Strobe/Lamp Enabled: No (FLMT00174)
Correct for Detector Non-linearity: No (FLMT00174)
Correct for Stray Light: No (FLMT00174)
Number of Pixels in Processed Spectrum: 3648
>>>>>Begin Processed Spectral Data<<<<<
345.74	3147.48
345.96	3147.48
346.18	3147.48
346.39	3182.46
346.61	3207.36
346.83	3215.88
347.05	3220.96
347.27	3192.13
347.49	3200.73
347.71	3215.80
347.93	3222.03
348.15	3236.20
348.36	3207.20
348.58	3218.34
348.80	3216.70
349.02	3220.39
349.24	3206.46
349.46	3302.88
349.68	3329.75
349.90	3328.60
350.11	3314.51
350.33	3320.33
350.55	3310.99
350.77	3316.64
350.99	3313.78
351.21	3323.03
351.43	3307.80
351.65	3338.11
351.86	3315.25
352.08	3321.81
352.30	3285.52
352.52	3340.24
352.74	3307.80
352.96	3306.49
353.18	3325.98
353.39	3308.29
353.61	3316.23
353.83	3341.06
354.05	3338.60
354.27	3331.14
354.49	3311.24
354.70	3334.83
354.92	3315.58
355.14	3315.50
355.36	3311.89
355.58	3311.81
355.80	3333.27
356.02	3319.10
356.23	3335.24
356.45	3309.11
356.67	3326.15
356.89	3352.52
357.11	3314.10
357.33	3348.92
357.54	3314.84
357.76	3320.17
357.98	3313.94
358.20	3328.36
358.42	3313.70
358.63	3306.08
358.85	3337.04
359.07	3334.09
359.29	3316.73
359.51	3319.18
359.73	3303.29
359.94	3321.31
360.16	3319.02
360.38	3314.10
360.60	3314.35
360.82	3330.98
361.03	3333.11
361.25	3323.03
361.47	3344.09
361.69	3333.19
361.91	3346.14
362.12	3324.75
362.34	3319.84
362.56	3341.14
362.78	3326.47
363.00	3326.31
363.21	3315.17
363.43	3336.55
363.65	3307.72
363.87	3327.29
364.09	3349.49
364.30	3308.53
364.52	3330.16
364.74	3339.83
364.96	3323.94
365.17	3314.60
365.39	3332.37
365.61	3318.69
365.83	3332.78
366.05	3327.21
366.26	3321.97
366.48	3337.62
366.70	3339.01
366.92	3339.66
367.13	3318.45
367.35	3320.74
367.57	3311.89
367.79	3330.57
368.01	3342.86
368.22	3352.20
368.44	3350.23
368.66	3332.78
368.88	3323.28
369.09	3336.71
369.31	3340.73
369.53	3332.45
369.75	3340.97
369.96	3356.87
370.18	3348.27
370.40	3345.89
370.62	3348.67
370.83	3350.23
371.05	3359.82
371.27	3353.67
371.49	3337.53
371.70	3365.06
371.92	3341.14
372.14	3345.32
372.36	3328.93
372.57	3351.79
372.79	3353.59
373.01	3339.66
373.22	3355.88
373.44	3339.25
373.66	3349.41
373.88	3357.28
374.09	3351.21
374.31	3339.34
374.53	3317.22
374.75	3356.13
374.96	3343.51
375.18	3372.92
375.40	3345.07
375.61	3366.86
375.83	3337.53
376.05	3356.29
376.27	3362.52
376.48	3329.51
376.70	3341.88
376.92	3352.03
377.13	3333.85
377.35	3362.44
377.57	3344.17
377.79	3355.47
378.00	3357.36
378.22	3364.32
378.44	3341.22
378.65	3383.49
378.87	3363.91
379.09	3346.95
379.30	3356.46
379.52	3369.48
379.74	3353.18
379.96	3363.26
380.17	3355.80
380.39	3359.57
380.61	3348.84
380.82	3373.00
381.04	3352.85
381.26	3379.97
381.47	3375.05
381.69	3405.85
381.91	3380.38
382.12	3393.81
382.34	3400.12
382.56	3396.19
382.77	3370.96
382.99	3381.61
383.21	3370.30
383.42	3394.63
383.64	3386.77
383.86	3382.26
384.07	3389.80
384.29	3387.01
384.51	3378.49
384.72	3385.78
384.94	3380.38
385.16	3412.41
385.37	3390.29
385.59	3388.32
385.81	3392.75
386.02	3393.40
386.24	3413.64
386.46	3412.00
386.67	3428.71
386.89	3414.62
387.11	3410.77
387.32	3422.32
387.54	3382.34
387.76	3412.41
387.97	3448.78
388.19	3446.40
388.40	3418.72
388.62	3411.26
388.84	3410.20
389.05	3434.12
389.27	3432.40
389.49	3446.57
389.70	3438.05
389.92	3437.47
390.14	3440.34
390.35	3442.14
390.57	3435.84
390.78	3444.03
391.00	3441.16
391.22	3446.90
391.43	3430.35
391.65	3455.17
391.86	3473.93
392.08	3484.82
392.30	3454.68
392.51	3465.98
392.73	3496.21
392.95	3485.48
393.16	3460.17
393.38	3490.39
393.59	3470.08
393.81	3484.17
394.03	3492.52
394.24	3474.99
394.46	3481.38
394.67	3485.81
394.89	3486.46
395.11	3510.22
395.32	3510.87
395.54	3503.91
395.75	3530.37
395.97	3512.10
396.19	3506.86
396.40	3518.49
396.62	3519.88
396.83	3523.57
397.05	3555.60
397.26	3542.25
397.48	3545.85
397.70	3525.46
397.91	3549.79
398.13	3548.31
398.34	3540.36
398.56	3556.50
398.78	3555.77
398.99	3591.48
399.21	3537.25
399.42	3577.23
399.64	3566.58
399.85	3590.01
400.07	3590.83
400.29	3601.89
400.50	3591.65
400.72	3614.50
400.93	3591.15
401.15	3617.45
401.36	3610.24
401.58	3642.93
401.79	3624.50
402.01	3630.72
402.23	3617.86
402.44	3663.08
402.66	3645.71
402.87	3636.86
403.09	3632.93
403.30	3644.73
403.52	3633.01
403.73	3643.09
403.95	3653.99
404.16	3676.51
404.38	3671.60
404.60	3677.99
404.81	3686.18
405.03	3700.84
405.24	3702.56
405.46	3694.62
405.67	3698.71
405.89	3719.85
406.10	3711.57
406.32	3703.38
406.53	3741.23
406.75	3749.09
406.96	3742.21
407.18	3726.40
407.39	3734.59
407.61	3763.02
407.82	3764.17
408.04	3779.73
408.25	3762.77
408.47	3781.04
408.68	3789.48
408.90	3789.15
409.12	3804.80
409.33	3798.33
409.55	3795.95
409.76	3811.27
409.98	3805.29
410.19	3822.08
410.41	3814.14
410.62	3850.75
410.84	3822.08
411.05	3839.61
411.27	3861.40
411.48	3867.22
411.70	3868.53
411.91	3870.74
412.12	3893.02
412.34	3889.83
412.55	3867.47
412.77	3885.65
412.98	3906.13
413.20	3893.11
413.41	3918.26
413.63	3899.17
413.84	3912.44
414.06	3924.24
414.27	3936.44
414.49	3957.09
414.70	3962.49
414.92	3959.71
415.13	3959.54
415.35	3979.69
415.56	3988.79
415.78	3984.28
415.99	4005.50
416.21	4006.73
416.42	4025.41
416.63	4025.00
416.85	4034.09
417.06	4029.26
417.28	4029.75
417.49	4072.51
417.71	4064.07
417.92	4049.82
418.14	4068.09
418.35	4077.67
418.57	4109.70
418.78	4079.31
418.99	4096.35
419.21	4108.96
419.42	4112.40
419.64	4093.97
419.85	4129.03
420.07	4199.97
420.28	4141.89
420.50	4156.56
420.71	4184.49
420.92	4171.06
421.14	4213.41
421.35	4191.78
421.57	4191.78
421.78	4214.15
422.00	4219.47
422.21	4229.22
422.42	4241.18
422.64	4241.83
422.85	4267.31
423.07	4298.44
423.28	4279.85
423.50	4301.64
423.71	4315.97
423.92	4341.61
424.14	4316.63
424.35	4336.70
424.57	4354.23
424.78	4360.62
424.99	4402.07
425.21	4395.43
425.42	4381.10
425.64	4394.94
425.85	4427.71
426.06	4409.77
426.28	4427.46
426.49	4490.87
426.71	4444.91
426.92	4460.39
427.13	4520.44
427.35	4528.88
427.56	4552.47
427.78	4520.69
427.99	4530.76
428.20	4568.36
428.42	4597.77
428.63	4599.41
428.84	4560.50
429.06	4613.91
429.27	4609.73
429.49	4607.68
429.70	4681.82
429.91	4645.04
430.13	4674.12
430.34	4683.21
430.56	4683.46
430.77	4739.16
430.98	4701.56
431.20	4744.16
431.41	4755.47
431.62	4791.10
431.84	4774.14
432.05	4776.93
432.26	4812.89
432.48	4777.09
432.69	4842.63
432.91	4812.24
433.12	4853.11
433.33	4873.67
433.55	4926.59
433.76	4933.88
433.97	4904.64
434.19	4917.91
434.40	4955.02
434.61	4973.04
434.83	4996.96
435.04	4973.37
435.25	5028.25
435.47	5016.54
435.68	5002.94
435.89	5086.09
436.11	5039.72
436.32	5091.50
436.53	5087.32
436.75	5096.82
436.96	5102.72
437.17	5103.37
437.39	5144.17
437.60	5161.54
437.81	5167.43
438.03	5221.75
438.24	5178.58
438.45	5258.53
438.67	5233.95
438.88	5280.97
439.09	5319.48
439.31	5297.28
439.52	5303.01
439.73	5324.23
439.94	5271.31
440.16	5337.25
440.37	5348.07
440.58	5414.17
440.80	5409.34
441.01	5399.02
441.22	5500.93
441.44	5461.77
441.65	5451.77
441.86	5454.31
442.08	5509.69
442.29	5500.52
442.50	5511.49
442.71	5537.30
442.93	5567.36
443.14	5555.73
443.35	5625.61
443.57	5581.29
443.78	5661.73
443.99	5666.89
444.20	5652.31
444.42	5687.13
444.63	5688.36
444.84	5738.24
445.06	5769.62
445.27	5744.63
445.48	5747.58
445.69	5785.59
445.91	5777.81
446.12	5779.86
446.33	5805.91
446.54	5892.99
446.76	5832.04
446.97	5899.38
447.18	5865.38
447.39	5945.25
447.61	5931.74
447.82	5973.19
448.03	5962.70
448.25	5996.78
448.46	6047.08
448.67	6068.87
448.88	6047.32
449.10	6114.58
449.31	6115.07
449.52	6105.49
449.73	6117.12
449.95	6219.03
450.16	6149.48
450.37	6243.44
450.58	6357.80
450.79	6212.39
451.01	6288.41
451.22	6268.59
451.43	6296.03
451.64	6362.22
451.86	6347.80
452.07	6375.90
452.28	6418.42
452.49	6519.42
452.71	6422.18
452.92	6424.40
453.13	6502.06
453.34	6511.56
453.55	6567.84
453.77	6635.25
453.98	6596.92
454.19	6557.92
454.40	6633.37
454.62	6688.58
454.83	6650.25
455.04	6734.05
455.25	6667.04
455.46	6878.39
455.68	6786.72
455.89	6770.99
456.10	6806.38
456.31	6874.54
456.52	6912.71
456.74	6897.97
456.95	7025.35
457.16	6987.75
457.37	7080.16
457.58	7029.37
457.80	7058.12
458.01	7005.94
458.22	7283.97
458.43	7168.55
458.64	7191.97
458.86	7155.68
459.07	7231.87
459.28	7191.07
459.49	7335.09
459.70	7437.98
459.91	7401.60
460.13	7365.07
460.34	7418.81
460.55	7398.66
460.76	7525.14
460.97	7526.04
461.19	7500.32
461.40	7687.09
461.61	7651.62
461.82	7656.78
462.03	7739.85
462.24	7725.02
462.46	7737.47
462.67	7714.78
462.88	7837.33
463.09	7811.77
463.30	7938.17
463.51	7885.50
463.72	8018.78
463.94	8042.70
464.15	8059.17
464.36	8007.39
464.57	8187.29
464.78	8138.14
464.99	8221.86
465.20	8177.46
465.42	8317.37
465.63	8310.90
465.84	8319.09
466.05	8434.93
466.26	8446.07
466.47	8538.72
466.68	8472.36
466.90	8623.42
467.11	8576.81
467.32	8673.07
467.53	8785.21
467.74	8657.91
467.95	8733.93
468.16	8879.83
468.37	8937.75
468.59	8925.38
468.80	9085.44
469.01	8949.38
469.22	9092.24
469.43	9262.88
469.64	9206.03
469.85	9251.58
470.06	9336.44
470.28	9414.51
470.49	9313.92
470.70	9407.47
470.91	9628.40
471.12	9498.89
471.33	9686.97
471.54	9647.16
471.75	9706.47
471.96	9929.04
472.17	9904.06
472.39	10084.85
472.60	9942.07
472.81	10174.06
473.02	10145.96
473.23	10285.47
473.44	10375.01
473.65	10336.02
473.86	10420.64
474.07	10434.65
474.28	10517.30
474.49	10759.29
474.71	10720.71
474.92	10832.20
475.13	10814.34
475.34	10850.88
475.55	10903.80
475.76	10991.53
475.97	11256.29
476.18	11201.32
476.39	11388.84
476.60	11460.68
476.81	11465.84
477.02	11630.91
477.23	11617.80
477.44	11652.94
477.65	11812.85
477.87	12012.89
478.08	11964.64
478.29	12009.29
478.50	12313.04
478.71	12222.11
478.92	12357.69
479.13	12392.01
479.34	12484.09
479.55	12560.11
479.76	12578.79
479.97	12633.43
480.18	12965.94
480.39	12792.35
480.60	13106.75
480.81	13114.86
481.02	13211.69
481.23	13248.31
481.44	13418.70
481.65	13521.59
481.86	13739.58
482.07	13504.31
482.28	13983.78
482.49	13841.73
482.71	13902.02
482.92	14078.23
483.13	14179.48
483.34	14173.83
483.55	14314.73
483.76	14318.74
483.97	14558.44
484.18	14586.37
484.39	14706.38
484.60	14738.58
484.81	14950.66
485.02	14889.80
485.23	15090.91
485.44	15208.54
485.65	15340.51
485.86	15308.65
486.07	15573.82
486.28	15573.49
486.49	15741.26
486.70	15853.98
486.91	15978.58
487.12	15933.11
487.33	15975.06
487.54	16289.95
487.75	16350.90
487.96	16293.97
488.17	16302.57
488.38	16588.22
488.59	16651.54
488.80	16762.71
489.01	16728.14
489.22	17007.07
489.43	17003.47
489.64	16904.34
489.85	17317.87
490.06	17149.85
490.26	17334.50
490.47	17312.22
490.68	17531.68
490.89	17757.20
491.10	17530.86
491.31	17786.53
491.52	18029.91
491.73	17990.50
491.94	18037.85
492.15	18220.61
492.36	18281.32
492.57	18345.46
492.78	18325.22
492.99	18481.61
493.20	18593.67
493.41	18644.30
493.62	18756.44
493.83	18780.69
494.04	18962.80
494.25	19105.01
494.46	19154.24
494.67	19088.95
494.88	19251.64
495.08	19341.10
495.29	19416.14
495.50	19605.45
495.71	19517.06
495.92	19762.33
496.13	19835.40
496.34	19750.69
496.55	19967.86
496.76	20206.08
496.97	19862.68
497.18	20168.81
497.39	20086.07
497.60	20415.87
497.81	20234.10
498.02	20450.61
498.22	20301.35
498.43	20675.23
498.64	20698.25
498.85	20657.37
499.06	20796.71
499.27	21121.44
499.48	20648.77
499.69	20988.65
499.90	21014.94
500.11	21214.74
500.32	21427.00
500.52	21194.02
500.73	21640.39
500.94	21636.71
501.15	21695.77
501.36	21743.94
501.57	21633.35
501.78	21804.23
501.99	22055.56
502.20	21979.21
502.41	22119.62
502.61	22136.74
502.82	22356.77
503.03	22105.86
503.24	22528.72
503.45	22340.55
503.66	22555.75
503.87	22540.76
504.08	22743.02
504.28	22645.87
504.49	22851.56
504.70	22871.80
504.91	22972.07
505.12	22816.17
505.33	23176.45
505.54	23221.84
505.75	23196.36
505.95	23405.99
506.16	23334.80
506.37	23262.30
506.58	23622.91
506.79	23339.14
507.00	23747.75
507.21	23510.27
507.41	23524.85
507.62	23685.50
507.83	24003.42
508.04	23748.08
508.25	24126.87
508.46	23905.12
508.67	24298.33
508.87	24175.04
509.08	24473.23
509.29	24327.90
509.50	24490.27
509.71	24586.27
509.92	24646.81
510.12	24524.26
510.33	24656.64
510.54	24621.83
510.75	24810.65
510.96	25035.60
511.17	25162.33
511.37	25103.92
511.58	25279.63
511.79	25178.63
512.00	25130.95
512.21	25499.34
512.42	25446.26
512.62	25622.14
512.83	25853.56
513.04	25735.92
513.25	26016.99
513.46	25558.16
513.66	26192.46
513.87	25971.93
514.08	26252.83
514.29	26092.27
514.50	26131.84
514.71	26351.05
514.91	26209.17
515.12	26288.14
515.33	26523.33
515.54	26447.63
515.75	26707.15
515.95	26498.59
516.16	26521.28
516.37	26810.45
516.58	26886.06
516.78	26820.53
516.99	27064.89
517.20	27069.07
517.41	27135.75
517.62	27180.64
517.82	27207.02
518.03	27493.57
518.24	27738.92
518.45	27251.58
518.66	27672.65
518.86	27451.71
519.07	27815.68
519.28	27425.17
519.49	27895.87
519.69	27893.17
519.90	28009.25
520.11	28029.24
520.32	28038.58
520.52	28413.52
520.73	28099.36
520.94	28434.90
521.15	28443.99
521.36	28313.17
521.56	28776.25
521.77	28357.81
521.98	28790.84
522.19	28451.94
522.39	28852.77
522.60	28694.34
522.81	28843.18
523.02	28819.18
523.22	29092.46
523.43	29246.96
523.64	29150.46
523.84	29265.39
524.05	29504.84
524.26	29416.86
524.47	29389.99
524.67	29534.66
524.88	29611.58
525.09	29844.23
525.30	29631.16
525.50	29685.23
525.71	29847.26
525.92	29874.46
526.13	30151.10
526.33	30009.46
526.54	29825.22
526.75	30105.06
526.95	30340.25
527.16	29965.55
527.37	30329.43
527.58	30533.41
527.78	30571.59
527.99	30785.80
528.20	30867.15
528.40	30658.01
528.61	30640.56
528.82	30980.36
529.03	30933.91
529.23	30903.85
529.44	31153.13
529.65	31180.00
529.85	31280.51
530.06	31210.47
530.27	31281.58
530.47	30968.56
530.68	31645.79
530.89	31102.58
531.09	31568.78
531.30	31530.04
531.51	31353.91
531.72	31794.88
531.92	31746.71
532.13	31917.67
532.34	31860.82
532.54	31877.29
532.75	31960.44
532.96	32004.59
533.16	32220.86
533.37	32387.72
533.58	32128.86
533.78	32446.87
533.99	32513.47
534.20	32180.14
534.40	32477.84
534.61	32622.34
534.82	32581.54
535.02	32685.25
535.23	32756.36
535.44	32894.72
535.64	32867.20
535.85	33003.51
536.06	32945.92
536.26	32958.37
536.47	32977.46
536.68	33477.24
536.88	33029.72
537.09	33528.03
537.29	33163.33
537.50	33805.16
537.71	33421.05
537.91	33583.08
538.12	33728.00
538.33	33493.55
538.53	33718.17
538.74	33839.00
538.95	33829.82
539.15	33679.01
539.36	33867.18
539.56	34211.07
539.77	33821.30
539.98	33966.87
540.18	34085.82
540.39	33937.55
540.60	34159.05
540.80	34322.89
541.01	34379.17
541.21	34376.55
541.42	34533.09
541.63	34570.12
541.83	34662.12
542.04	34577.41
542.25	34604.94
542.45	34712.58
542.66	34802.69
542.86	34992.17
543.07	34269.15
543.28	35058.69
543.48	34937.61
543.69	35076.79
543.89	34983.89
544.10	35374.81
544.31	35236.61
544.51	35082.28
544.72	35299.04
544.92	35203.68
545.13	35661.53
545.33	35575.67
545.54	35473.36
545.75	35743.69
545.95	35537.99
546.16	35494.33
546.36	35938.41
546.57	35302.31
546.78	34721.67
546.98	35244.89
547.19	34674.24
547.39	35529.23
547.60	35810.86
547.80	36218.66
548.01	36269.36
548.22	35991.08
548.42	36131.49
548.63	36312.70
548.83	36193.59
549.04	36372.83
549.24	36104.30
549.45	36321.46
549.65	36628.58
549.86	36214.89
550.07	36420.58
550.27	36749.82
550.48	36689.28
550.68	36598.51
550.89	36624.48
551.09	36873.19
551.30	36719.26
551.50	36986.97
551.71	36807.98
551.91	36802.16
552.12	37010.32
552.33	37297.03
552.53	36895.63
552.74	37369.04
552.94	37421.47
553.15	37143.19
553.35	37353.80
553.56	36961.90
553.76	37440.47
553.97	37093.55
554.17	37340.86
554.38	37875.30
554.58	37455.05
554.79	37864.65
554.99	37449.40
555.20	37536.65
555.40	37868.58
555.61	37601.94
555.81	37458.17
556.02	38147.68
556.22	38093.69
556.43	37857.60
556.63	37918.63
556.84	37823.69
557.04	38314.30
557.25	37734.81
557.45	38073.95
557.66	38085.50
557.86	37949.02
558.07	38446.76
558.27	38097.87
558.48	38251.06
558.68	38278.83
558.89	38395.15
559.09	38479.28
559.30	38296.03
559.50	38562.02
559.71	38166.93
559.91	38829.32
560.12	38424.32
560.32	38596.02
560.53	38697.84
560.73	38559.89
560.94	38872.74
561.14	38552.93
561.35	39070.33
561.55	38808.76
561.76	38897.48
561.96	38551.86
562.17	39023.55
562.37	39176.58
562.57	38969.16
562.78	38916.89
562.98	39164.94
563.19	39202.22
563.39	39368.27
563.60	39390.47
563.80	39020.03
564.01	39568.64
564.21	39245.72
564.42	39249.73
564.62	39360.57
564.82	39689.63
565.03	39400.54
565.23	39440.36
565.44	39723.06
565.64	39480.17
565.85	39858.31
566.05	39619.10
566.25	39866.09
566.46	39607.96
566.66	39852.98
566.87	39921.38
567.07	39805.30
567.28	39930.80
567.48	40049.42
567.68	39536.36
567.89	40337.94
568.09	39907.78
568.30	39914.58
568.50	40258.48
568.71	40131.26
568.91	40295.83
569.11	40122.00
569.32	40182.54
569.52	40338.19
569.73	39943.09
569.93	40369.72
570.13	40213.42
570.34	40199.01
570.54	40582.30
570.75	40464.34
570.95	40478.84
571.15	40381.77
571.36	40844.77
571.56	40426.33
571.77	40586.48
571.97	40143.22
572.17	40793.33
572.38	40694.94
572.58	40918.17
572.79	40727.79
572.99	40793.90
573.19	40761.62
573.40	40778.50
573.60	40873.36
573.81	40847.80
574.01	40963.06
574.21	40908.59
574.42	40911.12
574.62	40695.35
574.82	41025.24
575.03	40699.94
575.23	41210.95
575.43	40858.94
575.64	40903.18
575.84	41234.95
576.05	40889.01
576.25	41172.77
576.45	40981.98
576.66	41511.84
576.86	41172.69
577.06	41466.62
577.27	41361.27
577.47	41411.24
577.67	41307.12
577.88	40892.61
578.08	41440.73
578.28	41521.50
578.49	41361.84
578.69	41551.65
578.89	41289.92
579.10	41446.79
579.30	42007.12
579.50	41569.34
579.71	41283.61
579.91	41762.18
580.11	41440.98
580.32	41523.88
580.52	41426.39
580.72	41969.84
580.93	41473.01
581.13	41518.80
581.33	41878.42
581.54	41602.11
581.74	41600.14
581.94	41810.18
582.15	41997.20
582.35	41692.96
582.55	41822.63
582.76	41616.12
582.96	42014.00
583.16	41885.55
583.37	42088.62
583.57	41762.92
583.77	42129.67
583.97	41381.17
584.18	42274.01
584.38	42077.07
584.58	41901.85
584.79	42366.17
584.99	42342.90
585.19	42204.54
585.40	42220.51
585.60	42408.68
585.80	42016.62
586.00	42361.17
586.21	42187.42
586.41	42352.40
586.61	42495.11
586.82	42316.03
587.02	42277.28
587.22	42681.14
587.42	42172.67
587.63	42724.89
587.83	42198.97
588.03	42383.70
588.23	42098.21
588.44	42460.78
588.64	42309.97
588.84	42523.86
589.05	42721.28
589.25	42774.94
589.45	42655.83
589.65	42410.07
589.86	42736.68
590.06	42808.53
590.26	42494.20
590.46	42821.80
590.67	42341.26
590.87	42884.71
591.07	42965.81
591.27	42495.19
591.48	42974.00
591.68	42379.27
591.88	43127.44
592.08	42414.25
592.29	42805.66
592.49	42778.30
592.69	43120.23
592.89	42854.65
593.10	42871.52
593.30	42887.74
593.50	43289.47
593.70	42480.77
593.90	43230.74
594.11	43099.17
594.31	42981.70
594.51	43244.58
594.71	43211.40
594.92	43276.94
595.12	43084.51
595.32	43098.52
595.52	43314.70
595.72	42878.49
595.93	43249.50
596.13	43128.26
596.33	42880.86
596.53	43403.58
596.73	43237.62
596.94	43223.28
597.14	43475.59
597.34	43286.20
597.54	43657.12
597.74	43211.81
597.95	43287.01
598.15	43321.26
598.35	43442.09
598.55	43584.30
598.75	43216.97
598.96	43706.52
599.16	43389.74
599.36	43517.21
599.56	43360.25
599.76	43352.06
599.97	43726.34
600.17	43499.59
600.37	43571.35
600.57	43050.60
600.77	43726.02
600.97	43467.65
601.18	43955.72
601.38	43600.93
601.58	43886.41
601.78	43652.78
601.98	43502.79
602.18	43796.71
602.39	44008.55
602.59	43797.70
602.79	43795.32
602.99	43802.86
603.19	43800.07
603.39	43692.84
603.60	43702.10
603.80	43798.60
604.00	43777.95
604.20	43864.21
604.40	44019.61
604.60	43876.75
604.80	43791.88
605.01	44008.15
605.21	43982.50
605.41	43896.98
605.61	43648.52
605.81	43936.88
606.01	44234.16
606.21	43707.59
606.42	44095.06
606.62	43859.22
606.82	44182.30
607.02	44002.33
607.22	44137.09
607.42	44329.43
607.62	43812.69
607.82	44182.63
608.03	44162.40
608.23	43978.24
608.43	43819.40
608.63	44286.34
608.83	44134.55
609.03	44049.84
609.23	44100.55
609.43	44242.35
609.63	44016.17
609.84	43871.50
610.04	44328.20
610.24	44264.39
610.44	44235.63
610.64	44065.16
610.84	44269.47
611.04	44618.44
611.24	44327.79
611.44	43843.24
611.64	44330.33
611.85	44368.83
612.05	44308.79
612.25	44351.14
612.45	44151.18
612.65	44437.24
612.85	44500.56
613.05	44286.67
613.25	44560.20
613.45	44385.46
613.65	44391.12
613.85	44148.47
614.05	44465.25
614.25	44573.14
614.46	44302.48
614.66	44199.10
614.86	43958.01
615.06	44111.69
615.26	44433.71
615.46	43891.82
615.66	44483.85
615.86	44504.25
616.06	44285.36
616.26	44323.53
616.46	44792.93
616.66	44377.68
616.86	44790.80
617.06	44323.78
617.26	44733.54
617.46	44513.99
617.66	44314.69
617.86	44160.02
618.07	44390.87
618.27	44374.40
618.47	44379.65
618.67	44383.91
618.87	44483.36
619.07	44311.41
619.27	44244.56
619.47	44296.01
619.67	44554.79
619.87	44231.21
620.07	44468.36
620.27	44275.04
620.47	44154.21
620.67	44322.55
620.87	44353.10
621.07	44468.20
621.27	44415.85
621.47	44099.07
621.67	44453.54
621.87	44225.07
622.07	44640.89
622.27	44547.17
622.47	44261.11
622.67	44464.27
622.87	44227.03
623.07	44452.96
623.27	44792.84
623.47	44022.56
623.67	44398.24
623.87	44622.86
624.07	44408.40
624.27	44043.21
624.47	44319.68
624.67	44058.12
624.87	44213.19
625.07	43990.04
625.27	44324.02
625.47	44082.86
625.67	44049.43
625.87	44289.62
626.07	44238.01
626.27	44589.28
626.47	44435.68
626.67	44296.66
626.87	44068.52
627.07	44503.67
627.27	44334.43
627.47	44575.76
627.67	44312.23
627.87	44250.38
628.07	44527.59
628.27	44246.36
628.47	44120.29
628.67	44496.79
628.86	44587.80
629.06	44211.22
629.26	44228.67
629.46	44458.62
629.66	44324.60
629.86	43838.25
630.06	44407.91
630.26	44264.80
630.46	44541.03
630.66	44096.54
630.86	44231.62
631.06	44380.30
631.26	44038.46
631.46	44606.40
631.66	44414.79
631.86	44144.05
632.06	44532.43
632.26	44204.01
632.45	44284.46
632.65	44224.00
632.85	44420.77
633.05	44259.72
633.25	44398.16
633.45	44043.12
633.65	44140.69
633.85	44524.56
634.05	43809.00
634.25	44139.79
634.45	44224.25
634.65	44407.99
634.84	44047.96
635.04	44203.60
635.24	43903.94
635.44	44156.66
635.64	43883.14
635.84	44125.62
636.04	44127.58
636.24	44137.74
636.44	44204.42
636.64	43818.59
636.84	44478.28
637.03	43864.13
637.23	44201.39
637.43	44120.78
637.63	43773.78
637.83	44117.51
638.03	44046.48
638.23	43726.51
638.43	43930.40
638.62	44199.67
638.82	43415.30
639.02	44091.95
639.22	43827.60
639.42	44023.30
639.62	43660.48
639.82	43875.11
640.02	43923.52
640.21	44055.58
640.41	43490.42
640.61	43902.72
640.81	43875.03
641.01	43874.37
641.21	43614.77
641.41	44216.96
641.61	43677.03
641.80	43713.16
642.00	44054.67
642.20	44085.39
642.40	43419.80
642.60	43869.87
642.80	43909.60
642.99	43636.81
643.19	43956.70
643.39	43531.95
643.59	43831.28
643.79	43742.48
643.99	43928.19
644.19	43931.71
644.38	43398.26
644.58	43779.26
644.78	43633.86
644.98	43630.09
645.18	43803.59
645.38	44075.15
645.57	43591.51
645.77	43837.51
645.97	43577.58
646.17	43909.19
646.37	43806.62
646.56	43651.63
646.76	43629.84
646.96	43703.65
647.16	43360.91
647.36	43575.29
647.55	43430.70
647.75	43578.81
647.95	43362.22
648.15	43672.93
648.35	43545.96
648.55	43634.02
648.74	43537.52
648.94	43606.99
649.14	44004.46
649.34	43479.03
649.54	43445.69
649.73	43408.01
649.93	43226.80
650.13	43300.12
650.33	43023.07
650.52	43445.94
650.72	43516.14
650.92	43326.83
651.12	43267.35
651.32	43546.29
651.51	43537.44
651.71	43558.33
651.91	43346.98
652.11	43193.30
652.30	42988.58
652.50	43432.26
652.70	43362.46
652.90	42939.35
653.10	43270.06
653.29	43066.24
653.49	43296.68
653.69	42925.92
653.89	43070.83
654.08	43071.16
654.28	43376.55
654.48	43326.42
654.68	43440.45
654.87	43296.93
655.07	43005.95
655.27	43344.19
655.47	42921.00
655.66	42959.34
655.86	42985.47
656.06	43333.22
656.26	42563.26
656.45	43089.02
656.65	42943.69
656.85	42947.13
657.04	42621.10
657.24	42660.58
657.44	42616.26
657.64	43150.70
657.83	42361.50
658.03	42944.18
658.23	42828.11
658.43	42582.92
658.62	42715.30
658.82	42681.14
659.02	42602.17
659.21	42666.40
659.41	42494.70
659.61	42942.38
659.81	42620.28
660.00	42396.15
660.20	42704.98
660.40	42482.08
660.59	42636.33
660.79	42244.68
660.99	42615.53
661.19	42646.57
661.38	42623.14
661.58	42006.13
661.78	42376.49
661.97	42123.85
662.17	42755.77
662.37	42099.93
662.56	42236.00
662.76	42225.59
662.96	42306.45
663.15	42351.01
663.35	42280.81
663.55	41984.59
663.74	41879.49
663.94	42231.16
664.14	41711.96
664.33	42041.11
664.53	41856.71
664.73	42304.56
664.93	41731.87
665.12	42293.75
665.32	42054.06
665.52	42173.49
665.71	41934.37
665.91	42101.90
666.10	41767.01
666.30	42128.60
666.50	41750.96
666.69	41675.34
666.89	41980.16
667.09	42168.66
667.28	41791.26
667.48	41711.55
667.68	41812.80
667.87	41816.16
668.07	41477.76
668.27	41878.67
668.46	41791.83
668.66	41572.70
668.86	41909.88
669.05	41498.89
669.25	41748.83
669.44	41543.37
669.64	41484.80
669.84	41509.95
670.03	41820.75
670.23	41555.74
670.43	41503.97
670.62	41568.93
670.82	41477.59
671.01	41697.22
671.21	41351.44
671.41	41323.34
671.60	41560.90
671.80	41664.61
672.00	41415.17
672.19	41497.42
672.39	41467.11
672.58	41400.43
672.78	41254.36
672.98	41640.20
673.17	41360.69
673.37	40813.40
673.56	41135.34
673.76	41192.35
673.96	41434.50
674.15	41209.72
674.35	41263.46
674.54	41191.37
674.74	41129.68
674.94	41126.00
675.13	41180.72
675.33	40829.21
675.52	41283.86
675.72	41232.08
675.91	41101.42
676.11	41452.28
676.31	40913.09
676.50	41081.02
676.70	41008.61
676.89	41211.52
677.09	41252.07
677.28	41290.41
677.48	40769.57
677.68	41259.44
677.87	40908.99
678.07	40939.14
678.26	40992.47
678.46	40997.71
678.65	40775.06
678.85	41027.86
679.04	40628.18
679.24	40844.85
679.44	40443.61
679.63	40784.23
679.83	40645.22
680.02	40642.60
680.22	40481.54
680.41	40827.49
680.61	40591.40
680.80	40561.82
681.00	40689.86
681.19	40574.44
681.39	40343.51
681.59	40231.44
681.78	40239.39
681.98	40546.18
682.17	40076.95
682.37	40409.21
682.56	40000.19
682.76	40392.09
682.95	40178.44
683.15	40244.06
683.34	40171.56
683.54	40196.22
683.73	40286.49
683.93	39919.58
684.12	40022.80
684.32	40297.06
684.51	39779.34
684.71	39979.38
684.90	39982.66
685.10	39932.11
685.29	39897.38
685.49	39971.19
685.68	39969.06
685.88	39884.93
686.07	39605.91
686.27	40025.67
686.46	39799.73
686.66	39635.81
686.85	39935.14
687.05	39766.88
687.24	39771.47
687.44	40109.96
687.63	39925.07
687.83	39542.75
688.02	39798.42
688.22	39883.29
688.41	39680.54
688.61	39578.31
688.80	39692.75
689.00	39222.21
689.19	39138.81
689.39	39602.23
689.58	39426.92
689.77	39466.98
689.97	39506.05
690.16	39255.96
690.36	38969.65
690.55	38896.42
690.75	39424.22
690.94	39014.71
691.14	39201.64
691.33	38847.92
691.53	39126.20
691.72	38933.03
691.91	38938.36
692.11	38792.62
692.30	39005.37
692.50	39005.12
692.69	38710.21
692.89	38923.45
693.08	38690.23
693.28	38702.27
693.47	38853.98
693.66	38796.97
693.86	38709.97
694.05	38607.65
694.25	38632.23
694.44	38764.85
694.64	38560.71
694.83	38612.40
695.02	38547.85
695.22	38680.72
695.41	38482.97
695.61	38405.72
695.80	38496.00
695.99	38374.76
696.19	38430.87
696.38	38458.40
696.58	38148.17
696.77	38590.69
696.96	38411.37
697.16	38281.61
697.35	38287.51
697.55	38292.51
697.74	38065.19
697.93	38548.59
698.13	38044.54
698.32	38304.31
698.52	38049.21
698.71	37714.74
698.90	38405.23
699.10	37966.23
699.29	37968.44
699.49	38262.20
699.68	37941.82
699.87	37825.74
700.07	38143.91
700.26	37828.52
700.45	37779.21
700.65	37550.82
700.84	37896.60
701.04	37511.66
701.23	37785.51
701.42	37626.51
701.62	37508.55
701.81	37564.25
702.00	37522.39
702.20	37180.22
702.39	37375.02
702.58	37472.18
702.78	37204.06
702.97	37313.17
703.17	37409.18
703.36	37290.81
703.55	37163.83
703.75	37193.73
703.94	37313.66
704.13	37048.25
704.33	36967.64
704.52	37376.99
704.71	37221.42
704.91	37131.80
705.10	36881.21
705.29	36975.99
705.49	36992.95
705.68	37055.37
705.87	36920.78
706.07	36675.60
706.26	36982.14
706.45	36641.60
706.65	36388.14
706.84	36763.91
707.03	37067.50
707.23	36541.25
707.42	36478.83
707.61	36731.30
707.80	36510.12
708.00	36387.65
708.19	36316.47
708.38	36556.82
708.58	35959.87
708.77	36574.51
708.96	36142.88
709.16	36150.74
709.35	36784.80
709.54	36398.63
709.74	36184.09
709.93	35875.33
710.12	36465.48
710.31	36609.00
710.51	36151.07
710.70	36232.99
710.89	36247.98
711.09	35847.15
711.28	35816.11
711.47	36091.03
711.66	35969.87
711.86	35984.61
712.05	35863.70
712.24	36161.64
712.43	35829.46
712.63	35545.53
712.82	35997.88
713.01	35828.97
713.21	35477.78
713.40	35559.45
713.59	35814.63
713.78	35324.68
713.98	35701.26
714.17	35452.63
714.36	35454.76
714.55	35083.10
714.75	35103.00
714.94	35194.92
715.13	35385.38
715.32	34905.58
715.52	35224.33
715.71	34956.21
715.90	35019.94
716.09	34882.56
716.29	35148.30
716.48	35059.18
716.67	34546.12
716.86	34865.77
717.06	34817.35
717.25	34838.57
717.44	34862.74
717.63	34834.31
717.82	34456.26
718.02	34686.28
718.21	34753.62
718.40	34826.36
718.59	34616.24
718.79	34436.35
718.98	34387.85
719.17	34611.65
719.36	34665.56
719.55	34465.68
719.75	34337.96
719.94	34306.67
720.13	34704.22
720.32	34447.16
720.51	34232.94
720.71	34327.31
720.90	33851.86
721.09	34102.69
721.28	33856.86
721.47	34222.21
721.67	34012.26
721.86	34006.85
722.05	33912.97
722.24	33675.32
722.43	33971.62
722.63	33748.23
722.82	33801.72
723.01	33921.98
723.20	33598.24
723.39	33665.33
723.58	33867.34
723.78	33401.22
723.97	33808.28
724.16	33483.06
724.35	33582.10
724.54	33326.10
724.73	33539.99
724.93	33169.97
725.12	33437.68
725.31	32861.38
725.50	33211.42
725.69	33425.72
725.88	33022.76
726.08	32754.31
726.27	33224.85
726.46	32598.99
726.65	33241.81
726.84	32749.40
727.03	32862.12
727.23	33204.29
727.42	32771.51
727.61	32818.21
727.80	32626.52
727.99	32836.72
728.18	32869.00
728.37	32671.41
728.56	32544.68
728.76	32548.94
728.95	32627.01
729.14	32667.64
729.33	32531.41
729.52	32584.00
729.71	32563.19
729.90	32466.69
730.09	32176.54
730.29	32404.76
730.48	31958.47
730.67	32338.49
730.86	32026.87
731.05	32371.34
731.24	31977.80
731.43	32138.69
731.62	31867.21
731.81	31929.96
732.01	32163.35
732.20	31966.50
732.39	32183.75
732.58	32098.22
732.77	31579.43
732.96	32074.71
733.15	32010.57
733.34	31631.04
733.53	31730.41
733.72	31669.22
733.92	31632.19
734.11	31412.56
734.30	31458.60
734.49	31654.72
734.68	31397.16
734.87	31405.76
735.06	31437.39
735.25	31468.76
735.44	31211.62
735.63	31386.43
735.82	31441.56
736.01	31259.21
736.20	31237.50
736.40	31526.10
736.59	31343.59
736.78	31402.32
736.97	31099.55
737.16	31087.76
737.35	31191.71
737.54	31265.44
737.73	31020.09
737.92	31186.39
738.11	31298.86
738.30	31080.30
738.49	31007.64
738.68	30845.93
738.87	30921.71
739.06	30736.65
739.25	30752.38
739.44	30747.22
739.63	30641.38
739.82	30542.42
740.01	30724.45
740.20	30533.49
740.39	30591.25
740.59	30527.02
740.78	30569.62
740.97	30386.78
741.16	30311.82
741.35	30399.47
741.54	30283.48
741.73	30311.99
741.92	30250.14
742.11	30222.86
742.30	30328.29
742.49	29920.74
742.68	30178.70
742.87	30082.12
743.06	29839.89
743.25	30080.73
743.44	29880.52
743.63	30147.25
743.82	29887.65
744.01	29946.30
744.20	29717.66
744.39	30043.13
744.58	29967.52
744.77	29727.99
744.96	29507.05
745.15	29734.05
745.34	29622.56
745.53	29661.06
745.72	29526.55
745.91	29568.25
746.10	29343.54
746.29	29671.14
746.48	29523.44
746.67	29495.58
746.86	29556.37
747.04	29432.67
747.23	29326.34
747.42	29515.00
747.61	29203.79
747.80	29537.94
747.99	29039.13
748.18	29370.58
748.37	29155.70
748.56	28909.62
748.75	29024.55
748.94	29022.34
749.13	29028.56
749.32	28877.51
749.51	28969.83
749.70	28967.94
749.89	28801.57
750.08	28858.58
750.27	28581.45
750.46	28774.04
750.65	28872.18
750.84	28579.32
751.02	28740.62
751.21	28521.32
751.40	28616.68
751.59	28665.25
751.78	28511.33
751.97	28550.90
752.16	28324.64
752.35	28569.33
752.54	28202.33
752.73	28412.62
752.92	28157.44
753.11	28149.74
753.30	28289.00
753.49	28338.07
753.67	28249.27
753.86	28063.40
754.05	28229.77
754.24	28005.56
754.43	28028.34
754.62	28101.24
754.81	27816.49
755.00	27962.80
755.19	27951.17
755.38	27582.78
755.56	27944.12
755.75	28092.07
755.94	27738.51
756.13	27803.96
756.32	27853.19
756.51	27701.32
756.70	27824.11
756.89	27739.98
757.08	27547.47
757.26	27596.62
757.45	27517.57
757.64	27248.88
757.83	27531.17
758.02	27335.14
758.21	27198.99
758.40	27330.47
758.59	27243.72
758.77	27135.34
758.96	27291.07
759.15	27328.42
759.34	27015.00
759.53	27171.71
759.72	27169.01
759.91	26975.03
760.09	27181.87
760.28	27276.57
760.47	26925.05
760.66	27163.11
760.85	26767.77
761.04	27129.85
761.23	27000.58
761.41	26927.27
761.60	27116.99
761.79	26895.97
761.98	26740.98
762.17	26997.72
762.36	26616.63
762.54	26900.48
762.73	26689.13
762.92	26534.38
763.11	26771.95
763.30	26848.87
763.49	26737.22
763.67	26714.28
763.86	26779.89
764.05	26814.14
764.24	26646.20
764.43	26875.00
764.61	26498.91
764.80	26476.06
764.99	26792.92
765.18	26411.10
765.37	26636.21
765.55	26547.98
765.74	26472.13
765.93	26330.73
766.12	26514.81
766.31	26433.38
766.49	26412.57
766.68	26461.15
766.87	26371.20
767.06	26279.70
767.25	26378.57
767.43	26354.08
767.62	26263.97
767.81	26316.89
768.00	26116.52
768.19	26079.24
768.37	26133.64
768.56	26128.39
768.75	26186.15
768.94	26249.63
769.12	26029.85
769.31	26009.37
769.50	25999.13
769.69	26128.97
769.88	25813.34
770.06	26283.39
770.25	25931.30
770.44	25893.45
770.63	26078.10
770.81	26005.68
771.00	25937.20
771.19	26072.28
771.38	25939.24
771.56	26132.49
771.75	25602.56
771.94	25889.03
772.13	25788.02
772.31	25607.39
772.50	25822.18
772.69	25632.62
772.88	25866.58
773.06	25461.66
773.25	25614.60
773.44	25711.84
773.62	25614.03
773.81	25640.73
774.00	25493.69
774.19	25467.88
774.37	25391.95
774.56	25587.16
774.75	25218.52
774.94	25390.39
775.12	25258.01
775.31	25466.16
775.50	25354.75
775.68	25318.46
775.87	25207.38
776.06	25102.12
776.25	25294.13
776.43	25101.95
776.62	25372.20
776.81	25068.20
776.99	25262.10
777.18	25257.76
777.37	24991.12
777.55	25175.02
777.74	25158.56
777.93	25114.24
778.12	25049.85
778.30	24922.80
778.49	24971.54
778.68	25074.76
778.86	25009.63
779.05	25084.91
779.24	25093.84
779.42	24995.13
779.61	24885.85
779.80	24960.81
779.98	24980.71
780.17	25035.35
780.36	24784.76
780.54	25064.27
780.73	24571.45
780.92	24974.08
781.10	24833.91
781.29	24716.44
781.48	24635.02
781.66	24761.83
781.85	24813.44
782.04	24583.73
782.22	24617.90
782.41	24480.11
782.60	24564.98
782.78	24564.98
782.97	24683.10
783.16	24355.76
783.34	24462.66
783.53	24523.77
783.71	24373.78
783.90	24419.82
784.09	24415.88
784.27	24412.69
784.46	24392.37
784.65	24337.57
784.83	24193.97
785.02	24138.42
785.20	24452.58
785.39	23991.87
785.58	24370.75
785.76	24244.35
785.95	24207.81
786.14	24293.99
786.32	24290.47
786.51	24228.04
786.69	24311.76
786.88	24171.44
787.07	24211.91
787.25	24154.07
787.44	24085.18
787.62	24071.74
787.81	24258.11
788.00	24220.83
788.18	24199.70
788.37	24146.29
788.55	24475.27
788.74	24226.65
788.93	24378.20
789.11	24440.30
789.30	24298.58
789.48	24224.11
789.67	24411.95
789.86	24290.22
790.04	24303.82
790.23	24205.43
790.41	24134.98
790.60	24204.61
790.78	24163.82
790.97	23917.41
791.16	24143.83
791.34	24399.75
791.53	24124.50
791.71	24523.12
791.90	24287.60
792.08	24380.49
792.27	24457.01
792.46	24413.67
792.64	24439.48
792.83	24371.40
793.01	24397.78
793.20	24361.08
793.38	24306.28
793.57	24290.63
793.75	24292.35
793.94	24366.08
794.12	24523.61
794.31	24348.96
794.50	24473.80
794.68	24635.51
794.87	24514.51
795.05	24783.37
795.24	24538.11
795.42	24525.33
795.61	24769.94
795.79	24783.53
795.98	24494.77
796.16	24695.80
796.35	24766.58
796.53	24492.81
796.72	24693.10
796.90	24654.68
797.09	24640.18
797.27	24549.82
797.46	24463.81
797.64	24644.93
797.83	24563.26
798.01	24676.88
798.20	24720.46
798.38	24658.61
798.57	24901.25
798.75	24795.82
798.94	24530.49
799.12	25206.48
799.31	24888.80
799.49	24841.86
799.68	24701.45
799.86	24710.79
800.05	24643.04
800.23	24589.47
800.42	24520.49
800.60	24759.61
800.79	24433.33
800.97	24583.98
801.16	24829.49
801.34	24582.26
801.53	24578.41
801.71	24723.90
801.90	24482.24
802.08	24822.45
802.27	24576.77
802.45	24517.30
802.64	24605.69
802.82	24742.41
803.00	24438.17
803.19	24543.51
803.37	24798.85
803.56	24491.33
803.74	24529.34
803.93	24624.69
804.11	24510.99
804.30	24387.62
804.48	24511.97
804.67	24519.84
804.85	24440.62
805.03	24579.15
805.22	24285.55
805.40	24211.25
805.59	24437.51
805.77	24464.95
805.96	24281.95
806.14	24341.58
806.32	24457.01
806.51	24661.48
806.69	24446.68
806.88	24408.18
807.06	24348.05
807.25	24358.79
807.43	24425.80
807.61	24447.75
807.80	24271.46
807.98	24471.59
808.17	24400.65
808.35	24284.98
808.53	24531.72
808.72	24393.27
808.90	24312.75
809.09	24312.67
809.27	24373.61
809.45	24104.59
809.64	24303.08
809.82	24055.77
810.01	24134.16
810.19	24172.83
810.37	24003.91
810.56	24066.01
810.74	24182.82
810.93	23907.99
811.11	24039.38
811.29	23954.27
811.48	24029.47
811.66	24074.53
811.84	23965.66
812.03	23964.92
812.21	23975.73
812.40	24074.20
812.58	24149.81
812.76	23907.17
812.95	24121.71
813.13	23748.90
813.31	23944.52
813.50	23949.85
813.68	23834.18
813.86	23926.66
814.05	23982.45
814.23	23625.04
814.42	23872.19
814.60	23643.72
814.78	23748.90
814.97	23644.62
815.15	23580.39
815.33	23727.93
815.52	23535.83
815.70	23525.51
815.88	23555.82
816.07	23386.49
816.25	23551.31
816.43	23547.14
816.62	23280.57
816.80	23422.13
816.98	23327.02
817.17	23259.68
817.35	23318.50
817.53	23267.22
817.72	23467.35
817.90	23215.77
818.08	23251.00
818.26	23391.33
818.45	23237.15
818.63	23335.78
818.81	23334.06
819.00	23006.88
819.18	23315.47
819.36	23157.78
819.55	23229.86
819.73	23034.24
819.91	23244.85
820.09	23089.86
820.28	23301.54
820.46	23079.30
820.64	23354.13
820.83	23119.52
821.01	23065.62
821.19	23049.23
821.38	23060.05
821.56	22952.00
821.74	23107.89
821.92	22879.09
822.11	23157.12
822.29	22834.85
822.47	22862.95
822.65	22894.24
822.84	22917.34
823.02	22720.74
823.20	23030.31
823.39	22705.09
823.57	22731.63
823.75	22822.15
823.93	22688.95
824.12	22740.24
824.30	22618.67
824.48	22562.31
824.66	22726.72
824.85	22244.05
825.03	22522.82
825.21	22644.64
825.39	22513.73
825.58	22530.52
825.76	22549.61
825.94	22646.03
826.12	22551.09
826.31	22347.35
826.49	22405.52
826.67	22483.99
826.85	22262.65
827.03	22296.97
827.22	22375.04
827.40	22097.50
827.58	22151.57
827.76	22261.83
827.95	22138.46
828.13	22114.21
828.31	22163.12
828.49	22240.78
828.67	22095.37
828.86	22020.50
829.04	22059.24
829.22	21944.39
829.40	21848.22
829.58	21847.89
829.77	21958.65
829.95	21938.74
830.13	21957.58
830.31	21863.05
830.49	21973.23
830.68	21886.97
830.86	21767.61
831.04	21668.90
831.22	21777.77
831.40	21639.33
831.59	21808.33
831.77	21593.62
831.95	21823.65
832.13	21521.53
832.31	21702.49
832.50	21643.51
832.68	21599.52
832.86	21621.06
833.04	21814.64
833.22	21470.33
833.40	21861.57
833.59	21574.78
833.77	21715.51
833.95	21286.83
834.13	21915.48
834.31	21578.14
834.49	21553.23
834.67	21571.83
834.86	21564.37
835.04	21492.29
835.22	21587.64
835.40	21545.29
835.58	21406.68
835.76	21482.37
835.95	21446.16
836.13	21319.27
836.31	21161.66
836.49	21391.53
836.67	21371.62
836.85	21259.55
837.03	21224.90
837.21	21307.15
837.40	21199.75
837.58	21038.54
837.76	21200.98
837.94	21153.22
838.12	21283.72
838.30	21124.96
838.48	21106.69
838.66	21070.24
838.85	21052.79
839.03	21074.42
839.21	21031.41
839.39	21027.64
839.57	21068.60
839.75	20868.56
839.93	20918.77
840.11	20959.49
840.29	20885.27
840.47	20870.69
840.66	20885.92
840.84	20871.67
841.02	20808.18
841.20	20817.60
841.38	20813.10
841.56	20790.57
841.74	20970.87
841.92	20665.97
842.10	20593.47
842.28	20730.03
842.46	20524.74
842.65	20510.00
842.83	20617.39
843.01	20678.91
843.19	20451.51
843.37	20513.36
843.55	20414.23
843.73	20511.80
843.91	20504.51
844.09	20384.33
844.27	20583.89
844.45	20351.65
844.63	20411.69
844.81	20449.87
844.99	20468.46
845.17	20393.51
845.35	20508.77
845.54	20352.30
845.72	20295.94
845.90	20299.30
846.08	20364.51
846.26	20091.88
846.44	20406.94
846.62	20107.69
846.80	20135.38
846.98	20117.44
847.16	20190.51
847.34	20217.06
847.52	20133.42
847.70	20023.24
847.88	20105.48
848.06	19958.11
848.24	20021.60
848.42	20001.45
848.60	19884.30
848.78	19996.04
848.96	19918.38
849.14	19853.83
849.32	19999.23
849.50	19774.20
849.68	19929.11
849.86	19840.64
850.04	19693.19
850.22	19735.62
850.40	19600.37
850.58	19718.91
850.76	19989.73
850.94	19372.47
851.12	19670.41
851.30	19511.49
851.48	19646.49
851.66	19472.91
851.84	19484.87
852.02	19470.78
852.20	19563.02
852.38	19413.11
852.56	19521.65
852.74	19424.90
852.92	19391.81
853.10	19303.33
853.28	19442.35
853.46	19138.68
853.64	19317.83
853.82	19181.60
854.00	19246.56
854.18	19140.64
854.36	19101.90
854.54	19152.11
854.72	19052.01
854.90	18939.45
855.07	18992.86
855.25	18970.58
855.43	18978.36
855.61	18914.79
855.79	18820.75
855.97	18921.02
856.15	18931.59
856.33	18883.25
856.51	18991.63
856.69	18770.04
856.87	18989.91
857.05	18815.84
857.23	18887.60
857.41	18738.09
857.59	18777.01
857.77	18794.05
857.94	18740.80
858.12	18916.43
858.30	18780.12
858.48	18721.30
858.66	18640.94
858.84	18843.03
859.02	18610.30
859.20	18632.91
859.38	18766.68
859.56	18688.21
859.74	18615.46
859.92	18630.78
860.09	18508.48
860.27	18609.24
860.45	18390.92
860.63	18347.18
860.81	18482.84
860.99	18340.95
861.17	18118.22
861.35	17821.75
861.53	17742.95
861.70	17701.17
861.88	18124.93
862.06	18080.29
862.24	17816.35
862.42	17817.98
862.60	18056.61
862.78	18136.65
862.96	18177.69
863.14	18005.91
863.31	18071.44
863.49	18056.12
863.67	17978.30
863.85	17950.28
864.03	18039.82
864.21	17990.34
864.39	18005.58
864.56	17827.73
864.74	17905.88
864.92	17749.17
865.10	17741.72
865.28	17750.15
865.46	17905.64
865.64	17511.03
865.81	17702.07
865.99	17491.29
866.17	17713.78
866.35	17591.64
866.53	17523.32
866.71	17575.83
866.88	17564.28
867.06	17426.17
867.24	17477.04
867.42	17352.36
867.60	17441.08
867.78	17398.81
867.95	17475.65
868.13	17326.23
868.31	17461.72
868.49	17468.60
868.67	17370.95
868.84	17315.99
869.02	17340.56
869.20	17046.23
869.38	17263.39
869.56	17121.02
869.73	17064.25
869.91	17110.86
870.09	17084.40
870.27	16945.55
870.45	17042.46
870.62	16937.19
870.80	17065.15
870.98	16956.53
871.16	16977.33
871.34	16964.14
871.51	17013.54
871.69	16832.42
871.87	16897.79
872.05	16896.07
872.23	16890.66
872.40	16786.95
872.58	16892.63
872.76	16777.86
872.94	16734.28
873.11	16741.57
873.29	16597.39
873.47	16692.58
873.65	16588.06
873.83	16560.37
874.00	16549.96
874.18	16533.09
874.36	16454.45
874.54	16470.83
874.71	16339.68
874.89	16221.14
875.07	16332.80
875.25	16222.45
875.42	16312.48
875.60	16314.53
875.78	16398.50
875.96	16233.18
876.13	16403.82
876.31	16212.46
876.49	16234.17
876.66	16165.76
876.84	16435.44
877.02	16217.95
877.20	16222.62
877.37	16236.05
877.55	16220.08
877.73	16177.97
877.91	16173.30
878.08	16265.71
878.26	16150.36
878.44	16136.03
878.61	16146.92
878.79	16003.16
878.97	16025.85
879.15	16129.56
879.32	16097.61
879.50	16076.80
879.68	16182.97
879.85	15982.02
880.03	16137.83
880.21	15974.57
880.38	16154.21
880.56	15942.04
880.74	16181.41
880.92	15937.95
881.09	16071.64
881.27	16031.01
881.45	16107.85
881.62	15995.70
881.80	15949.74
881.98	15974.73
882.15	16046.82
882.33	15947.70
882.51	15965.31
882.68	15889.70
882.86	16086.30
883.04	15860.45
883.21	15881.83
883.39	15986.44
883.57	15892.07
883.74	15890.84
883.92	15913.29
884.10	15917.63
884.27	15802.78
884.45	15767.88
884.63	15920.17
884.80	15891.58
884.98	15865.70
885.16	15836.21
885.33	15864.71
885.51	15867.74
885.69	15861.11
885.86	15857.59
886.04	15962.69
886.21	15719.96
886.39	15908.05
886.57	15758.05
886.74	15938.60
886.92	15870.94
887.10	15901.74
887.27	15830.39
887.45	15835.55
887.62	15849.80
887.80	15857.09
887.98	16003.81
888.15	15949.66
888.33	15801.06
888.51	16042.39
888.68	15864.55
888.86	15941.88
889.03	15862.50
889.21	15949.74
889.39	15998.65
889.56	15996.27
889.74	15962.11
889.91	15962.11
890.09	15939.50
890.27	15990.21
890.44	15951.87
890.62	15944.42
890.79	15945.40
890.97	15975.14
891.14	15935.41
891.32	15912.39
891.50	15787.71
891.67	15913.21
891.85	15913.37
892.02	15810.07
892.20	15954.82
892.38	15834.16
892.55	15745.52
892.73	15854.80
892.90	15730.86
893.08	15775.42
893.25	15777.96
893.43	15917.39
893.60	15760.59
893.78	15922.71
893.96	15810.07
894.13	15903.62
894.31	15994.88
894.48	15903.38
894.66	15943.11
894.83	15955.64
895.01	15951.22
895.18	15934.75
895.36	15912.88
895.53	15992.59
895.71	15924.68
895.89	15934.75
896.06	15817.36
896.24	15870.69
896.41	15851.77
896.59	15875.61
896.76	15708.99
896.94	15830.39
897.11	15842.59
897.29	15867.91
897.46	15752.73
897.64	15811.06
897.81	15768.70
897.99	15691.21
898.16	15847.59
898.34	15794.84
898.51	15749.04
898.69	15709.48
898.86	15756.91
899.04	15767.39
899.21	15654.67
899.39	15769.61
899.56	15626.74
899.74	15821.38
899.91	15663.93
900.09	15607.57
900.26	15654.10
900.44	15551.21
900.61	15559.16
900.79	15695.39
900.96	15555.31
901.14	15552.60
901.31	15516.89
901.49	15508.94
901.66	15499.76
901.84	15573.33
902.01	15423.17
902.19	15473.06
902.36	15340.92
902.54	15339.61
902.71	15351.33
902.88	15403.51
903.06	15153.90
903.23	15337.07
903.41	15202.07
903.58	15148.01
903.76	15018.66
903.93	15151.69
904.11	15210.18
904.28	15109.91
904.45	15049.70
904.63	15042.41
904.80	14910.85
904.98	15044.54
905.15	14920.60
905.33	14982.45
905.50	14917.81
905.68	14959.10
905.85	14878.00
906.02	14830.24
906.20	14924.04
906.37	14753.73
906.55	14754.55
906.72	14851.05
906.90	14660.10
907.07	14619.06
907.24	14667.31
907.42	14553.36
907.59	14536.73
907.77	14504.94
907.94	14504.29
908.11	14523.54
908.29	14479.71
908.46	14456.04
908.64	14372.15
908.81	14425.15
908.98	14333.41
909.16	14419.01
909.33	14311.29
909.51	14267.95
909.68	14218.39
909.85	14208.89
910.03	14219.62
910.20	14071.76
910.37	14043.99
910.55	14010.97
910.72	13969.19
910.90	13873.10
911.07	13883.51
911.24	13781.27
911.42	13915.13
911.59	13815.92
911.76	13829.11
911.94	13760.96
912.11	13758.75
912.29	13729.66
912.46	13660.28
912.63	13668.63
912.81	13567.30
912.98	13690.26
913.15	13534.45
913.33	13593.84
913.50	13546.17
913.67	13454.17
913.85	13379.13
914.02	13368.32
914.19	13348.09
914.37	13285.01
914.54	13280.83
914.71	13266.91
914.89	13275.26
915.06	13223.16
915.23	13179.83
915.41	13123.47
915.58	13059.65
915.75	13039.34
915.93	12995.26
916.10	12945.29
916.27	12880.49
916.45	12879.43
916.62	12740.50
916.79	12846.83
916.97	12720.02
917.14	12740.33
917.31	12639.16
917.49	12688.56
917.66	12713.71
917.83	12629.99
918.00	12583.29
918.18	12574.45
918.35	12466.72
918.52	12533.49
918.70	12411.10
918.87	12430.51
919.04	12401.76
919.21	12378.50
919.39	12271.26
919.56	12359.16
919.73	12196.64
919.91	12248.33
920.08	12251.03
920.25	12117.09
920.42	12228.01
920.60	12124.22
920.77	12069.42
920.94	12163.95
921.11	12017.23
921.29	12070.89
921.46	11937.61
921.63	12069.58
921.81	11925.16
921.98	11948.01
922.15	11883.38
922.32	11894.93
922.50	11807.60
922.67	11826.12
922.84	11711.43
923.01	11639.67
923.19	11663.10
923.36	11681.45
923.53	11483.21
923.70	11605.92
923.87	11510.08
924.05	11554.89
924.22	11484.52
924.39	11485.50
924.56	11341.00
924.74	11385.72
924.91	11398.01
925.08	11301.51
925.25	11301.43
925.43	11261.78
925.60	11152.01
925.77	11261.45
925.94	11170.52
926.11	11116.29
926.29	11095.73
926.46	11094.83
926.63	11041.34
926.80	11018.07
926.97	10914.04
927.15	10976.78
927.32	10821.96
927.49	10806.23
927.66	10828.18
927.83	10800.09
928.01	10681.22
928.18	10692.20
928.35	10577.10
928.52	10669.92
928.69	10531.97
928.87	10544.42
929.04	10508.13
929.21	10536.31
929.38	10437.84
929.55	10513.29
929.72	10420.72
929.90	10437.10
930.07	10410.32
930.24	10368.13
930.41	10369.03
930.58	10369.60
930.75	10346.26
930.93	10291.45
931.10	10307.51
931.27	10248.04
931.44	10199.38
931.61	10169.48
931.78	10229.36
931.95	10151.37
932.13	10093.05
932.30	10176.60
932.47	10009.16
932.64	10038.24
932.81	10012.36
932.98	9986.96
933.15	10020.55
933.33	9914.05
933.50	9993.84
933.67	9911.27
933.84	9975.00
934.01	9898.24
934.18	9953.70
934.35	9873.26
934.52	9886.69
934.70	9906.02
934.87	9836.31
935.04	9766.60
935.21	9797.48
935.38	9784.79
935.55	9729.33
935.72	9800.92
935.89	9676.16
936.06	9678.70
936.24	9604.48
936.41	9671.57
936.58	9570.81
936.75	9547.71
936.92	9544.35
937.09	9521.25
937.26	9465.38
937.43	9462.43
937.60	9439.83
937.77	9370.60
937.94	9355.78
938.12	9406.40
938.29	9323.09
938.46	9336.94
938.63	9266.08
938.80	9343.49
938.97	9261.00
939.14	9263.95
939.31	9204.80
939.48	9229.46
939.65	9098.88
939.82	9113.46
939.99	9109.37
940.16	9069.22
940.33	9048.17
940.50	9022.61
940.67	9019.83
940.85	9013.93
941.02	8984.77
941.19	8988.13
941.36	8939.30
941.53	8928.41
941.70	8899.00
941.87	8813.15
942.04	8843.95
942.21	8842.97
942.38	8790.95
942.55	8760.96
942.72	8758.83
942.89	8744.99
943.06	8685.60
943.23	8666.10
943.40	8640.38
943.57	8636.78
943.74	8656.03
943.91	8622.28
944.08	8595.32
944.25	8622.85
944.42	8560.92
944.59	8510.21
944.76	8547.73
944.93	8544.86
945.10	8496.37
945.27	8483.67
945.44	8391.43
945.61	8465.81
945.78	8412.15
945.95	8390.94
946.12	8347.60
946.29	8358.91
946.46	8372.34
946.63	8320.90
946.80	8293.13
946.97	8264.78
947.14	8218.01
947.31	8282.31
947.48	8225.22
947.65	8201.13
947.82	8194.33
947.99	8198.67
948.16	8114.63
948.33	8206.05
948.50	8110.69
948.67	8121.92
948.84	8081.04
949.01	8039.83
949.18	8045.49
949.35	8063.02
949.52	7963.90
949.68	7985.93
949.85	7961.93
950.02	7960.70
950.19	7889.51
950.36	7864.04
950.53	7828.57
950.70	7817.75
950.87	7789.98
951.04	7837.33
951.21	7770.73
951.38	7742.47
951.55	7761.80
951.72	7791.46
951.89	7713.14
952.06	7743.53
952.23	7741.81
952.39	7700.61
952.56	7633.68
952.73	7677.67
952.90	7583.30
953.07	7654.98
953.24	7537.92
953.41	7610.01
953.58	7514.57
953.75	7591.98
953.92	7514.82
954.09	7480.41
954.25	7465.17
954.42	7465.75
954.59	7425.61
954.76	7412.42
954.93	7397.75
955.10	7423.15
955.27	7341.56
955.44	7390.96
955.61	7351.22
955.77	7378.18
955.94	7344.67
956.11	7327.39
956.28	7355.24
956.45	7312.15
956.62	7300.93
956.79	7323.04
956.96	7298.80
957.12	7263.57
957.29	7263.08
957.46	7226.54
957.63	7218.19
957.80	7191.73
957.97	7184.60
958.14	7212.04
958.30	7110.30
958.47	7096.62
958.64	7102.52
958.81	7125.95
958.98	7063.61
959.15	7059.18
959.32	7060.74
959.48	7065.25
959.65	6980.71
959.82	7009.21
959.99	6951.79
960.16	6991.03
960.33	6942.53
960.49	6951.22
960.66	6890.60
960.83	6899.52
961.00	6885.27
961.17	6868.07
961.33	6873.15
961.50	6870.94
961.67	6841.53
961.84	6838.17
962.01	6789.10
962.18	6831.04
962.34	6762.15
962.51	6780.17
962.68	6708.41
962.85	6827.85
963.02	6689.65
963.18	6737.16
963.35	6690.96
963.52	6703.17
963.69	6689.57
963.86	6679.16
964.02	6621.16
964.19	6675.48
964.36	6610.68
964.53	6615.18
964.69	6573.90
964.86	6627.14
965.03	6525.48
965.20	6597.16
965.37	6468.96
965.53	6482.31
965.70	6467.40
965.87	6489.44
966.04	6456.02
966.20	6426.77
966.37	6400.72
966.54	6359.84
966.71	6411.86
966.87	6340.10
967.04	6362.38
967.21	6368.77
967.38	6347.64
967.54	6368.86
967.71	6324.37
967.88	6345.10
968.05	6311.35
968.21	6293.08
968.38	6259.90
968.55	6249.99
968.72	6251.30
968.88	6206.66
969.05	6236.23
969.22	6165.29
969.39	6169.14
969.55	6200.76
969.72	6144.64
969.89	6131.62
970.05	6186.75
970.22	6152.10
970.39	6116.38
970.56	6144.40
970.72	6113.68
970.89	6130.96
971.06	6073.62
971.22	6074.19
971.39	6075.91
971.56	6072.56
971.73	6000.38
971.89	6055.11
972.06	6007.27
972.23	6025.70
972.39	5987.11
972.56	5997.44
972.73	5919.94
972.89	5962.37
973.06	5931.08
973.23	5961.64
973.39	5930.26
973.56	5933.21
973.73	5901.02
973.89	5910.85
974.06	5871.28
974.23	5883.98
974.39	5858.26
974.56	5858.01
974.73	5797.23
974.89	5807.06
975.06	5787.89
975.23	5831.22
975.39	5740.62
975.56	5764.29
975.73	5744.06
975.89	5767.98
976.06	5738.74
976.23	5731.36
976.39	5720.80
976.56	5698.10
976.73	5678.77
976.89	5663.94
977.06	5666.98
977.23	5665.17
977.39	5624.21
977.56	5654.77
977.72	5595.05
977.89	5604.06
978.06	5573.75
978.22	5567.53
978.39	5550.40
978.56	5555.65
978.72	5520.01
978.89	5530.42
979.05	5515.34
979.22	5536.07
979.39	5500.19
979.55	5505.76
979.72	5497.57
979.88	5483.23
980.05	5458.41
980.22	5501.99
980.38	5472.66
980.55	5439.73
980.71	5433.34
980.88	5468.40
981.05	5434.57
981.21	5412.78
981.38	5396.48
981.54	5428.92
981.71	5382.14
981.88	5390.09
982.04	5401.64
982.21	5359.70
982.37	5347.00
982.54	5361.58
982.70	5297.03
982.87	5331.11
983.04	5261.72
983.20	5348.39
983.37	5270.00
983.53	5333.16
983.70	5265.57
983.86	5278.19
984.03	5260.08
984.20	5254.60
984.36	5240.18
984.53	5252.96
984.69	5219.45
984.86	5203.72
985.02	5210.03
985.19	5191.93
985.35	5195.29
985.52	5171.69
985.68	5182.92
985.85	5163.83
986.02	5134.99
986.18	5141.79
986.35	5129.18
986.51	5150.72
986.68	5130.98
986.84	5131.64
987.01	5102.88
987.17	5104.68
987.34	5108.86
987.50	5070.12
987.67	5058.32
987.83	5071.59
988.00	5055.86
988.16	5040.38
988.33	5015.15
988.49	5042.67
988.66	4999.83
988.82	4992.78
988.99	4981.56
989.15	5003.76
989.32	4951.50
989.48	4966.24
989.65	4917.09
989.81	4922.17
989.98	4913.90
990.14	4900.87
990.31	4885.80
990.47	4911.19
990.64	4876.46
990.80	4893.25
990.97	4855.65
991.13	4854.34
991.30	4862.21
991.46	4862.29
991.63	4840.42
991.79	4852.13
991.95	4810.51
992.12	4838.53
992.28	4775.29
992.45	4812.15
992.61	4795.69
992.78	4800.44
992.94	4766.20
993.11	4796.59
993.27	4768.00
993.44	4772.26
993.60	4736.62
993.76	4741.13
993.93	4742.93
994.09	4769.72
994.26	4727.37
994.42	4715.00
994.59	4685.75
994.75	4727.86
994.91	4689.93
995.08	4676.82
995.24	4639.55
995.41	4657.00
995.57	4643.32
995.74	4646.02
995.90	4630.05
996.06	4644.96
996.23	4617.68
996.39	4612.76
996.56	4598.67
996.72	4607.85
996.88	4589.91
997.05	4605.64
997.21	4573.36
997.38	4586.47
997.54	4560.25
997.70	4556.98
997.87	4547.47
998.03	4541.99
998.20	4516.92
998.36	4525.52
998.52	4489.97
998.69	4535.10
998.85	4472.11
999.02	4506.02
999.18	4491.03
999.34	4501.03
999.51	4467.11
999.67	4493.24
999.83	4480.79
1000.00	4466.29
1000.16	4444.50
1000.33	4469.65
1000.49	4452.04
1000.65	4472.19
1000.82	4437.29
1000.98	4423.12
1001.14	4403.30
1001.31	4432.62
1001.47	4428.53
1001.63	4424.35
1001.80	4393.88
1001.96	4366.27
1002.12	4369.79
1002.29	4382.49
1002.45	4355.95
1002.61	4367.09
1002.78	4348.25
1002.94	4347.18
1003.10	4327.03
1003.27	4336.21
1003.43	4313.43
1003.59	4312.86
1003.76	4325.06
1003.92	4295.16
1004.08	4297.95
1004.25	4300.24
1004.41	4293.44
1004.57	4278.70
1004.74	4267.23
1004.90	4298.85
1005.06	4260.27
1005.23	4279.68
1005.39	4256.25
1005.55	4244.87
1005.71	4269.61
1005.88	4222.83
1006.04	4259.12
1006.20	4248.22
1006.37	4183.92
1006.53	4223.81
1006.69	4209.23
1006.85	4239.87
1007.02	4190.64
1007.18	4220.54
1007.34	4192.11
1007.51	4203.82
1007.67	4166.55
1007.83	4173.35
1007.99	4154.51
1008.16	4174.01
1008.32	4118.30
1008.48	4176.87
1008.64	4136.16
1008.81	4159.34
1008.97	4126.25
1009.13	4137.22
1009.29	4117.65
1009.46	4112.16
1009.62	4129.69
1009.78	4121.09
1009.95	4119.78
1010.11	4098.31
1010.27	4062.35
1010.43	4083.57
1010.59	4092.09
1010.76	4084.14
1010.92	4075.87
1011.08	4082.26
1011.24	4036.22
1011.41	4064.07
1011.57	4029.75
1011.73	4044.74
1011.89	4000.58
1012.06	4051.78
1012.22	3997.31
1012.38	4022.13
1012.54	4000.09
1012.70	4005.09
1012.87	3980.84
1013.03	4004.02
1013.19	3986.33
1013.35	3993.21
1013.51	3968.06
1013.68	3989.85
1013.84	3955.28
1014.00	3955.36
1014.16	3908.51
1014.32	3964.54
1014.49	3955.69
1014.65	3963.39
1014.81	3927.92
1014.97	3965.69
1015.13	3932.84
1015.30	3925.55
1015.46	3938.24
1015.62	3930.54
1015.78	3921.86
1015.94	3914.32
1016.10	3912.85
1016.27	3899.74
1016.43	3873.28
1016.59	3915.55
1016.75	3888.60
1016.91	3895.65
1017.07	3864.19
1017.24	3877.62
1017.40	3860.09
1017.56	3862.39
1017.72	3864.84
1017.88	3864.03
1018.04	3836.75
1018.21	3851.49
1018.37	3830.11
1018.53	3855.92
1018.69	3806.68
1018.85	3831.42
1019.01	3809.80
1019.17	3830.52
1019.34	3802.75
1019.50	3811.19
1019.66	3794.64
1019.82	3801.19
1019.98	3782.76
1020.14	3797.18
1020.30	3795.30
1020.46	3797.18
1020.63	3777.85
1020.79	3778.58
1020.95	3784.65
1021.11	3774.32
1021.27	3759.42
1021.43	3765.64
1021.59	3755.40
1021.75	3759.66
1021.91	3731.07
1022.07	3759.74
1022.24	3747.54
1022.40	3736.81
1022.56	3737.22
1022.72	3745.08
1022.88	3714.20
1023.04	3734.92
1023.20	3710.59
1023.36	3721.49
1023.52	3715.59
1023.68	3718.21
1023.84	3697.48
1024.01	3714.52
1024.17	3680.94
1024.33	3713.05
1024.49	3691.83
1024.65	3681.35
1024.81	3677.33
1024.97	3684.38
1025.13	3671.84
1025.29	3665.62
1025.45	3657.34
1025.61	3677.74
1025.77	3662.42
1025.93	3653.08
1026.09	3656.44
1026.25	3654.72
1026.41	3640.47
1026.57	3659.31
1026.73	3645.96
1026.90	3648.91
1027.06	3630.31
1027.22	3650.22
1027.38	3643.34
1027.54	3648.09
1027.70	3638.75
1027.86	3631.46
1028.02	3646.12
1028.18	3625.64
1028.34	3607.21
1028.50	3635.47
1028.66	3614.26
1028.82	3641.53
1028.98	3604.92
1029.14	3595.09
1029.30	3593.37
1029.46	3578.37
1029.62	3600.98
1029.78	3573.62
1029.94	3609.18
1030.10	3608.28
1030.26	3583.86
1030.42	3577.80
1030.58	3561.83
1030.74	3576.08
1030.90	3553.96
1031.06	3560.43
1031.22	3560.52
1031.38	3559.62
1031.54	3549.87
1031.70	3563.30
1031.86	3554.95
1032.02	3527.91
1032.18	3534.06
1032.34	3550.44
1032.50	3528.49
1032.66	3544.30
1032.82	3526.27
1032.98	3532.34
1033.14	3530.21
1033.30	3540.28
1033.45	3504.65
1033.61	3529.96
1033.77	3515.54
1033.93	3539.14
1034.09	3521.28
1034.25	3518.49
1034.41	3505.22
1034.57	3511.94
1034.73	3486.63
1034.89	3498.01
1035.05	3517.02
1035.21	3507.60
1035.37	3491.95
1035.53	3493.67
1035.69	3475.73
1035.85	3493.59
1036.01	3470.16
1036.16	3494.90
1036.32	3477.86
1036.48	3491.95
1036.64	3464.34
1036.80	3503.09
1036.96	3473.19
1037.12	3470.16
1037.28	3462.54
1037.44	3467.05
1037.60	3478.93
1037.76	3464.02
1037.91	3466.15
1038.07	3469.10
1038.23	3455.74
1038.39	3453.53
1038.55	3458.28
1038.71	3459.26
1038.87	3448.62
1039.03	3462.30
1039.19	3441.32
1039.35	3423.22
1039.50	3453.12
1039.66	3459.59
1039.82	3422.07
1039.98	3451.73
1040.14	3422.65
1040.30	3437.97
1040.46	3427.56
1040.62	3428.05
1040.77	3427.56
1040.93	3445.75
1041.09	3396.60
1041.25	3423.38
1041.41	3416.26
1041.57	3427.32
1041.73	3427.32
1041.88	3427.32

