SpectraSuite Data File
++++++++++++++++++++++++++++++++++++
Date: Tue Sep 20 11:59:12 EDT 2022
User: Laboratoire
Dark Spectrum Present: No
Reference Spectrum Present: No
Number of Sampled Component Spectra: 1
Spectrometers: FLMT00174
Integration Time (usec): 15000 (FLMT00174)
Spectra Averaged: 25 (FLMT00174)
Boxcar Smoothing: 0 (FLMT00174)
Correct for Electrical Dark: No (FLMT00174)
Strobe/Lamp Enabled: No (FLMT00174)
Correct for Detector Non-linearity: No (FLMT00174)
Correct for Stray Light: No (FLMT00174)
Number of Pixels in Processed Spectrum: 3648
>>>>>Begin Processed Spectral Data<<<<<
345.74	3171.81
345.96	3171.81
346.18	3171.81
346.39	3190.98
346.61	3203.11
346.83	3213.92
347.05	3203.27
347.27	3209.90
347.49	3214.82
347.71	3225.31
347.93	3238.82
348.15	3225.47
348.36	3204.99
348.58	3216.62
348.80	3192.95
349.02	3213.59
349.24	3226.78
349.46	3303.29
349.68	3331.96
349.90	3342.69
350.11	3304.77
350.33	3319.43
350.55	3318.12
350.77	3319.27
350.99	3331.80
351.21	3340.24
351.43	3295.67
351.65	3339.01
351.86	3321.97
352.08	3332.37
352.30	3314.19
352.52	3340.24
352.74	3320.58
352.96	3312.30
353.18	3328.03
353.39	3333.68
353.61	3308.62
353.83	3336.80
354.05	3357.69
354.27	3316.97
354.49	3328.93
354.70	3325.49
354.92	3310.50
355.14	3317.14
355.36	3320.33
355.58	3334.50
355.80	3324.51
356.02	3326.56
356.23	3333.77
356.45	3334.58
356.67	3340.89
356.89	3332.29
357.11	3331.55
357.33	3371.37
357.54	3330.00
357.76	3326.64
357.98	3308.45
358.20	3336.06
358.42	3328.28
358.63	3329.59
358.85	3331.23
359.07	3344.09
359.29	3317.05
359.51	3329.75
359.73	3316.81
359.94	3341.14
360.16	3315.66
360.38	3344.99
360.60	3318.69
360.82	3342.12
361.03	3337.45
361.25	3351.21
361.47	3348.27
361.69	3351.79
361.91	3343.68
362.12	3323.94
362.34	3327.38
362.56	3351.95
362.78	3330.32
363.00	3346.54
363.21	3313.94
363.43	3345.56
363.65	3324.02
363.87	3342.53
364.09	3350.23
364.30	3339.66
364.52	3334.18
364.74	3346.87
364.96	3335.24
365.17	3337.70
365.39	3332.78
365.61	3328.60
365.83	3343.43
366.05	3347.28
366.26	3316.64
366.48	3348.92
366.70	3363.91
366.92	3346.14
367.13	3343.76
367.35	3350.89
367.57	3349.00
367.79	3347.20
368.01	3352.12
368.22	3351.62
368.44	3344.17
368.66	3350.56
368.88	3366.45
369.09	3341.88
369.31	3356.05
369.53	3342.86
369.75	3343.10
369.96	3345.48
370.18	3345.56
370.40	3349.58
370.62	3355.23
370.83	3358.42
371.05	3352.12
371.27	3371.86
371.49	3350.39
371.70	3356.38
371.92	3359.41
372.14	3357.60
372.36	3334.34
372.57	3372.59
372.79	3369.73
373.01	3368.66
373.22	3340.07
373.44	3372.51
373.66	3346.63
373.88	3373.91
374.09	3345.32
374.31	3345.89
374.53	3335.65
374.75	3373.33
374.96	3351.38
375.18	3389.88
375.40	3352.36
375.61	3355.15
375.83	3354.49
376.05	3354.00
376.27	3390.13
376.48	3358.67
376.70	3365.55
376.92	3378.33
377.13	3339.91
377.35	3372.51
377.57	3368.34
377.79	3355.31
378.00	3351.71
378.22	3387.34
378.44	3335.81
378.65	3380.38
378.87	3374.07
379.09	3389.22
379.30	3352.52
379.52	3376.04
379.74	3373.99
379.96	3367.02
380.17	3376.53
380.39	3377.02
380.61	3359.00
380.82	3377.35
381.04	3363.83
381.26	3373.50
381.47	3379.23
381.69	3397.01
381.91	3376.94
382.12	3401.84
382.34	3400.77
382.56	3390.94
382.77	3383.90
382.99	3387.67
383.21	3398.97
383.42	3397.83
383.64	3389.14
383.86	3398.48
384.07	3411.42
384.29	3394.55
384.51	3388.49
384.72	3401.35
384.94	3391.11
385.16	3415.77
385.37	3395.37
385.59	3401.10
385.81	3414.78
386.02	3409.38
386.24	3411.51
386.46	3418.88
386.67	3419.29
386.89	3433.38
387.11	3429.28
387.32	3409.05
387.54	3420.03
387.76	3434.85
387.97	3452.22
388.19	3449.43
388.40	3428.79
388.62	3416.99
388.84	3461.23
389.05	3431.08
389.27	3439.44
389.49	3451.16
389.70	3446.16
389.92	3442.14
390.14	3459.02
390.35	3449.93
390.57	3443.86
390.78	3441.82
391.00	3452.63
391.22	3465.00
391.43	3466.88
391.65	3463.44
391.86	3479.34
392.08	3490.80
392.30	3470.00
392.51	3486.13
392.73	3508.33
392.95	3490.31
393.16	3481.87
393.38	3507.27
393.59	3496.62
393.81	3514.64
394.03	3513.50
394.24	3491.13
394.46	3514.48
394.67	3506.70
394.89	3509.73
395.11	3525.62
395.32	3532.75
395.54	3551.18
395.75	3542.90
395.97	3541.68
396.19	3521.36
396.40	3546.10
396.62	3550.44
396.83	3537.25
397.05	3549.38
397.26	3547.98
397.48	3549.21
397.70	3572.48
397.91	3577.23
398.13	3563.22
398.34	3587.30
398.56	3589.35
398.78	3576.08
398.99	3620.24
399.21	3579.69
399.42	3620.40
399.64	3590.74
399.85	3601.48
400.07	3593.94
400.29	3635.23
400.50	3613.19
400.72	3641.04
400.93	3610.32
401.15	3637.60
401.36	3630.23
401.58	3656.69
401.79	3635.39
402.01	3675.37
402.23	3657.18
402.44	3689.62
402.66	3675.45
402.87	3673.97
403.09	3662.51
403.30	3683.07
403.52	3677.41
403.73	3668.81
403.95	3687.00
404.16	3708.38
404.38	3707.81
404.60	3703.22
404.81	3708.05
405.03	3736.40
405.24	3724.60
405.46	3740.00
405.67	3738.28
405.89	3763.18
406.10	3753.19
406.32	3741.88
406.53	3756.38
406.75	3786.37
406.96	3780.22
407.18	3777.44
407.39	3756.88
407.61	3810.45
407.82	3784.24
408.04	3813.40
408.25	3809.71
408.47	3824.70
408.68	3818.23
408.90	3807.42
409.12	3854.11
409.33	3868.20
409.55	3822.66
409.76	3854.03
409.98	3847.48
410.19	3850.02
410.41	3885.49
410.62	3897.45
410.84	3890.24
411.05	3903.43
411.27	3886.14
411.48	3896.96
411.70	3933.90
411.91	3926.94
412.12	3930.13
412.34	3933.82
412.55	3928.74
412.77	3932.10
412.98	3960.03
413.20	3960.44
413.41	3963.31
413.63	3968.64
413.84	3989.85
414.06	3988.13
414.27	3984.04
414.49	3997.23
414.70	4012.46
414.92	4023.69
415.13	4016.97
415.35	4044.98
415.56	4066.20
415.78	4042.12
415.99	4068.09
416.21	4063.99
416.42	4086.93
416.63	4121.99
416.85	4093.23
417.06	4084.88
417.28	4074.97
417.49	4116.74
417.71	4106.10
417.92	4129.77
418.14	4114.37
418.35	4153.85
418.57	4171.88
418.78	4173.68
418.99	4160.00
419.21	4190.14
419.42	4186.62
419.64	4183.43
419.85	4207.43
420.07	4223.48
420.28	4223.98
420.50	4227.09
420.71	4240.93
420.92	4247.73
421.14	4270.18
421.35	4261.58
421.57	4277.39
421.78	4296.72
422.00	4304.01
422.21	4317.69
422.42	4318.51
422.64	4314.25
422.85	4366.35
423.07	4372.90
423.28	4364.96
423.50	4387.57
423.71	4413.04
423.92	4429.26
424.14	4386.91
424.35	4420.34
424.57	4451.38
424.78	4470.96
424.99	4473.50
425.21	4500.62
425.42	4489.88
425.64	4488.33
425.85	4494.06
426.06	4507.33
426.28	4519.13
426.49	4584.83
426.71	4572.21
426.92	4566.97
427.13	4607.11
427.35	4636.19
427.56	4626.93
427.78	4639.55
427.99	4642.75
428.20	4666.17
428.42	4697.22
428.63	4708.61
428.84	4669.86
429.06	4711.07
429.27	4750.63
429.49	4743.26
429.70	4784.96
429.91	4760.38
430.13	4769.39
430.34	4815.10
430.56	4806.99
430.77	4871.13
430.98	4825.67
431.20	4870.89
431.41	4898.91
431.62	4900.38
431.84	4888.09
432.05	4919.30
432.26	4924.96
432.48	4914.63
432.69	4971.81
432.91	4959.61
433.12	4991.31
433.33	4989.51
433.55	5044.47
433.76	5076.91
433.97	5025.14
434.19	5064.87
434.40	5121.56
434.61	5127.87
434.83	5139.50
435.04	5106.81
435.25	5168.66
435.47	5159.90
435.68	5160.14
435.89	5224.94
436.11	5233.54
436.32	5239.69
436.53	5249.52
436.75	5250.42
436.96	5265.57
437.17	5255.25
437.39	5287.28
437.60	5310.22
437.81	5336.84
438.03	5351.42
438.24	5333.89
438.45	5428.84
438.67	5395.09
438.88	5461.93
439.09	5473.73
439.31	5487.25
439.52	5496.50
439.73	5507.73
439.94	5456.77
440.16	5538.94
440.37	5515.84
440.58	5594.97
440.80	5589.07
441.01	5582.03
441.22	5685.65
441.44	5688.60
441.65	5625.20
441.86	5674.02
442.08	5680.25
442.29	5692.94
442.50	5739.88
442.71	5732.92
442.93	5779.61
443.14	5776.17
443.35	5831.22
443.57	5775.52
443.78	5849.00
443.99	5883.16
444.20	5819.02
444.42	5886.44
444.63	5901.59
444.84	5961.23
445.06	5994.57
445.27	5948.04
445.48	5971.55
445.69	6028.07
445.91	6009.15
446.12	5974.74
446.33	6045.52
446.54	6114.74
446.76	6035.28
446.97	6129.24
447.18	6122.61
447.39	6171.35
447.61	6223.70
447.82	6212.47
448.03	6184.54
448.25	6241.55
448.46	6293.41
448.67	6310.69
448.88	6293.90
449.10	6373.69
449.31	6360.75
449.52	6352.64
449.73	6380.98
449.95	6477.56
450.16	6415.38
450.37	6536.38
450.58	6632.14
450.79	6453.80
451.01	6550.47
451.22	6524.26
451.43	6562.59
451.64	6632.14
451.86	6645.25
452.07	6649.59
452.28	6714.14
452.49	6791.80
452.71	6709.56
452.92	6729.13
453.13	6781.73
453.34	6779.10
453.55	6874.87
453.77	6922.95
453.98	6944.99
454.19	6886.34
454.40	6962.36
454.62	7010.77
454.83	6972.92
455.04	7100.80
455.25	6994.47
455.46	7248.91
455.68	7128.08
455.89	7116.20
456.10	7163.30
456.31	7215.49
456.52	7240.55
456.74	7227.53
456.95	7395.38
457.16	7311.99
457.37	7403.98
457.58	7375.06
457.80	7393.58
458.01	7371.46
458.22	7665.87
458.43	7523.09
458.64	7563.31
458.86	7482.62
459.07	7621.80
459.28	7563.15
459.49	7701.43
459.70	7828.97
459.91	7825.45
460.13	7768.93
460.34	7837.08
460.55	7801.94
460.76	7924.25
460.97	7923.43
461.19	7915.15
461.40	8129.62
461.61	8034.75
461.82	8091.28
462.03	8159.44
462.24	8114.71
462.46	8156.16
462.67	8147.23
462.88	8257.57
463.09	8268.96
463.30	8373.90
463.51	8290.26
463.72	8449.02
463.94	8494.48
464.15	8503.08
464.36	8443.45
464.57	8636.20
464.78	8646.20
464.99	8706.08
465.20	8654.96
465.42	8798.89
465.63	8793.49
465.84	8774.32
466.05	8962.81
466.26	8962.81
466.47	9064.47
466.68	9008.60
466.90	9132.79
467.11	9121.65
467.32	9202.83
467.53	9333.49
467.74	9162.20
467.95	9281.97
468.16	9431.88
468.37	9498.64
468.59	9510.11
468.80	9642.49
469.01	9505.52
469.22	9630.53
469.43	9846.22
469.64	9752.92
469.85	9898.65
470.06	9914.79
470.28	10059.21
470.49	9876.53
470.70	10034.15
470.91	10259.26
471.12	10182.83
471.33	10372.80
471.54	10306.77
471.75	10395.49
471.96	10585.46
472.17	10549.66
472.39	10804.02
472.60	10617.00
472.81	10883.97
473.02	10837.77
473.23	11005.21
473.44	11083.52
473.65	11013.81
473.86	11158.15
474.07	11154.47
474.28	11302.66
474.49	11547.35
474.71	11500.82
474.92	11658.43
475.13	11610.67
475.34	11681.86
475.55	11680.79
475.76	11822.92
475.97	12082.36
476.18	12029.93
476.39	12241.12
476.60	12335.00
476.81	12371.78
477.02	12479.09
477.23	12500.88
477.44	12514.65
477.65	12690.20
477.87	12855.59
478.08	12909.41
478.29	12955.70
478.50	13250.11
478.71	13167.46
478.92	13291.48
479.13	13308.77
479.34	13477.11
479.55	13599.74
479.76	13577.79
479.97	13672.24
480.18	14023.92
480.39	13814.20
480.60	14171.86
480.81	14242.89
481.02	14308.34
481.23	14282.04
481.44	14550.49
481.65	14660.92
481.86	14890.78
482.07	14667.22
482.28	15151.45
482.49	15000.96
482.71	15077.88
482.92	15255.81
483.13	15452.50
483.34	15415.80
483.55	15517.30
483.76	15569.97
483.97	15831.62
484.18	15852.02
484.39	15987.43
484.60	15946.96
484.81	16255.63
485.02	16164.54
485.23	16490.16
485.44	16570.93
485.65	16758.45
485.86	16635.81
486.07	16980.20
486.28	16947.68
486.49	17117.66
486.70	17287.56
486.91	17441.81
487.12	17379.96
487.33	17389.96
487.54	17738.36
487.75	17783.41
487.96	17855.42
488.17	17738.19
488.38	18040.15
488.59	18127.31
488.80	18254.28
489.01	18277.55
489.22	18608.01
489.43	18528.46
489.64	18577.04
489.85	18968.70
490.06	18704.59
490.26	18975.66
490.47	18967.63
490.68	19210.11
490.89	19396.72
491.10	19201.59
491.31	19553.35
491.52	19712.27
491.73	19675.74
491.94	19717.35
492.15	19945.58
492.36	20099.34
492.57	20022.42
492.78	20130.71
492.99	20227.38
493.20	20440.12
493.41	20410.38
493.62	20569.80
493.83	20581.27
494.04	20765.50
494.25	20999.71
494.46	20987.99
494.67	20946.62
494.88	21137.66
495.08	21161.50
495.29	21355.64
495.50	21518.25
495.71	21452.39
495.92	21755.16
496.13	21750.41
496.34	21705.52
496.55	21893.11
496.76	22225.54
496.97	21916.46
497.18	22208.01
497.39	22165.74
497.60	22568.21
497.81	22209.89
498.02	22440.17
498.22	22327.77
498.43	22678.80
498.64	22758.42
498.85	22745.40
499.06	22871.47
499.27	23170.47
499.48	22758.99
499.69	23067.34
499.90	23208.48
500.11	23376.01
500.32	23669.03
500.52	23442.93
500.73	23911.76
500.94	23900.61
501.15	23943.05
501.36	23961.40
501.57	23879.56
501.78	24108.36
501.99	24336.26
502.20	24294.64
502.41	24341.91
502.61	24326.26
502.82	24644.68
503.03	24526.97
503.24	24881.43
503.45	24671.14
503.66	24944.10
503.87	24865.13
504.08	25189.36
504.28	25063.94
504.49	25174.29
504.70	25294.71
504.91	25445.19
505.12	25303.72
505.33	25687.75
505.54	25623.78
505.75	25709.46
505.95	25929.41
506.16	25854.46
506.37	25766.23
506.58	26253.81
506.79	25904.76
507.00	26275.52
507.21	26041.15
507.41	26178.53
507.62	26171.32
507.83	26647.60
508.04	26340.24
508.25	26734.35
508.46	26535.53
508.67	26991.57
508.87	26783.42
509.08	27199.97
509.29	27002.06
509.50	27186.87
509.71	27230.94
509.92	27390.84
510.12	27245.19
510.33	27358.65
510.54	27351.69
510.75	27563.37
510.96	27761.53
511.17	27865.15
511.37	27833.53
511.58	28120.33
511.79	27940.68
512.00	27922.50
512.21	28329.96
512.42	28345.61
512.62	28457.59
512.83	28633.96
513.04	28515.92
513.25	28897.74
513.46	28402.30
513.66	29120.40
513.87	28855.06
514.08	29180.20
514.29	29030.20
514.50	28941.40
514.71	29253.02
514.91	29166.60
515.12	29184.21
515.33	29498.12
515.54	29349.85
515.75	29715.54
515.95	29481.58
516.16	29512.05
516.37	29872.66
516.58	29963.59
516.78	29904.69
516.99	30140.28
517.20	30141.51
517.41	30154.05
517.62	30295.27
517.82	30243.34
518.03	30631.55
518.24	30956.52
518.45	30474.02
518.66	30875.67
518.86	30568.88
519.07	31107.01
519.28	30535.79
519.49	31094.64
519.69	31127.32
519.90	31181.72
520.11	31366.61
520.32	31263.80
520.52	31604.25
520.73	31318.85
520.94	31779.23
521.15	31760.23
521.36	31457.70
521.56	32102.73
521.77	31605.56
521.98	32099.37
522.19	31825.11
522.39	32107.15
522.60	32037.69
522.81	32226.34
523.02	32116.41
523.22	32449.66
523.43	32613.66
523.64	32564.42
523.84	32636.51
524.05	32870.39
524.26	32885.14
524.47	32708.44
524.67	32960.66
524.88	33022.27
525.09	33301.12
525.30	33076.42
525.50	33139.90
525.71	33397.62
525.92	33399.34
526.13	33657.38
526.33	33520.82
526.54	33411.79
526.75	33628.71
526.95	33960.48
527.16	33480.44
527.37	34082.30
527.58	34115.96
527.78	34099.09
527.99	34417.51
528.20	34623.04
528.40	34302.90
528.61	34223.69
528.82	34589.62
529.03	34661.46
529.23	34565.94
529.44	34840.54
529.65	34836.85
529.85	34966.94
530.06	34876.74
530.27	34918.03
530.47	34694.88
530.68	35405.20
530.89	34750.59
531.09	35367.60
531.30	35310.75
531.51	35137.16
531.72	35562.73
531.92	35457.47
532.13	35698.55
532.34	35689.38
532.54	35656.77
532.75	35865.99
532.96	35817.17
533.16	36142.39
533.37	36269.36
533.58	35979.94
533.78	36306.88
533.99	36426.73
534.20	36076.77
534.40	36385.28
534.61	36473.83
534.82	36609.24
535.02	36620.22
535.23	36660.52
535.44	36839.84
535.64	36790.86
535.85	36940.03
536.06	37008.84
536.26	36886.87
536.47	36985.91
536.68	37539.68
536.88	37040.87
537.09	37587.03
537.29	37180.95
537.50	37754.06
537.71	37336.11
537.91	37598.74
538.12	37805.91
538.33	37540.25
538.53	37762.66
538.74	37791.58
538.95	37850.97
539.15	37747.75
539.36	38040.77
539.56	38360.58
539.77	37980.89
539.98	38077.56
540.18	38265.31
540.39	38113.52
540.60	38372.14
540.80	38531.79
541.01	38491.98
541.21	38485.10
541.42	38674.99
541.63	38679.58
541.83	38857.75
542.04	38877.33
542.25	38836.61
542.45	39012.00
542.66	39125.95
542.86	39309.20
543.07	38500.91
543.28	39319.12
543.48	39236.71
543.69	39379.49
543.89	39278.57
544.10	39687.59
544.31	39529.89
544.51	39372.36
544.72	39579.29
544.92	39485.90
545.13	39962.26
545.33	39900.74
545.54	39686.69
545.75	39946.94
545.95	39800.88
546.16	39843.97
546.36	40455.98
546.57	39646.22
546.78	39011.59
546.98	39566.84
547.19	38828.26
547.39	39999.70
547.60	40244.31
547.80	40659.39
548.01	40698.14
548.22	40407.49
548.42	40554.78
548.63	40726.73
548.83	40503.09
549.04	40848.87
549.24	40519.47
549.45	40785.63
549.65	41170.32
549.86	40717.39
550.07	40882.62
550.27	41238.14
550.48	41241.75
550.68	41104.54
550.89	41120.10
551.09	41347.51
551.30	41195.55
551.50	41538.21
551.71	41312.69
551.91	41241.01
552.12	41452.85
552.33	41790.77
552.53	41504.63
552.74	41953.05
552.94	42047.50
553.15	41716.88
553.35	41911.84
553.56	41559.35
553.76	42034.31
553.97	41728.35
554.17	41990.24
554.38	42615.94
554.58	42095.75
554.79	42468.97
554.99	41995.57
555.20	42057.99
555.40	42469.71
555.61	42191.02
555.81	42064.21
556.02	42800.09
556.22	42679.10
556.43	42511.49
556.63	42512.06
556.84	42443.91
557.04	42933.94
557.25	42413.92
557.45	42710.31
557.66	42782.64
557.86	42612.41
558.07	43166.18
558.27	42917.32
558.48	42986.21
558.68	42895.61
558.89	43185.60
559.09	43283.98
559.30	43052.73
559.50	43331.66
559.71	42930.26
559.91	43559.56
560.12	43222.63
560.32	43318.96
560.53	43439.63
560.73	43300.78
560.94	43674.00
561.14	43355.66
561.35	43885.59
561.55	43552.84
561.76	43804.25
561.96	43290.13
562.17	43671.13
562.37	43874.78
562.57	43733.55
562.78	43663.02
562.98	43959.16
563.19	44096.78
563.39	44156.58
563.60	44220.31
563.80	43786.72
564.01	44295.19
564.21	44116.20
564.42	44007.00
564.62	44211.63
564.82	44529.64
565.03	44201.56
565.23	44333.12
565.44	44528.90
565.64	44340.57
565.85	44693.31
566.05	44441.50
566.25	44767.29
566.46	44368.26
566.66	44654.89
566.87	44664.97
567.07	44567.16
567.28	44710.19
567.48	44912.28
567.68	44320.99
567.89	45126.66
568.09	44760.90
568.30	44812.10
568.50	45156.40
568.71	44936.78
568.91	45305.57
569.11	44909.17
569.32	45081.94
569.52	45239.55
569.73	44728.37
569.93	45212.84
570.13	45068.83
570.34	44991.50
570.54	45434.35
570.75	45275.76
570.95	45347.43
571.15	45244.95
571.36	45775.62
571.56	45290.26
571.77	45318.19
571.97	44921.05
572.17	45643.73
572.38	45555.67
572.58	45737.53
572.79	45577.38
572.99	45641.77
573.19	45597.86
573.40	45593.85
573.60	45794.06
573.81	45699.19
574.01	45868.60
574.21	45754.16
574.42	45776.85
574.62	45572.71
574.82	45947.08
575.03	45612.20
575.23	46070.12
575.43	45749.57
575.64	45765.88
575.84	46141.06
576.05	45809.78
576.25	46005.08
576.45	45862.70
576.66	46330.21
576.86	45989.60
577.06	46363.15
577.27	46239.04
577.47	46243.54
577.67	46199.80
577.88	45789.71
578.08	46443.92
578.28	46469.48
578.49	46321.78
578.69	46493.56
578.89	46205.62
579.10	46269.84
579.30	46859.90
579.50	46530.67
579.71	46195.95
579.91	46832.70
580.11	46459.07
580.32	46509.04
580.52	46516.99
580.72	47008.58
580.93	46466.28
581.13	46569.25
581.33	46896.60
581.54	46521.90
581.74	46666.90
581.94	46721.05
582.15	46986.96
582.35	46725.88
582.55	46796.25
582.76	46593.26
582.96	47146.78
583.16	46749.88
583.37	46951.65
583.57	46589.65
583.77	47059.86
583.97	46243.79
584.18	47223.87
584.38	47106.89
584.58	46813.29
584.79	47415.72
584.99	47304.31
585.19	47204.04
585.40	47107.05
585.60	47488.63
585.80	47000.96
586.00	47284.90
586.21	47255.65
586.41	47351.25
586.61	47500.83
586.82	47333.15
587.02	47219.61
587.22	47559.24
587.42	47049.87
587.63	47608.56
587.83	47112.05
588.03	47421.04
588.23	47069.20
588.44	47469.87
588.64	47267.77
588.84	47542.86
589.05	47699.16
589.25	47725.04
589.45	47607.41
589.65	47424.40
589.86	47683.59
590.06	47629.36
590.26	47410.23
590.46	47823.10
590.67	47250.08
590.87	47917.72
591.07	47966.54
591.27	47441.44
591.48	47945.65
591.68	47280.47
591.88	48110.23
592.08	47411.95
592.29	47828.67
592.49	47826.71
592.69	48107.61
592.89	47755.03
593.10	47861.77
593.30	47752.73
593.50	48350.33
593.70	47378.86
593.90	48127.27
594.11	47907.56
594.31	47946.55
594.51	48159.05
594.71	48209.59
594.92	48278.41
595.12	48001.44
595.32	48015.12
595.52	48277.26
595.72	47652.63
595.93	48289.55
596.13	47957.94
596.33	47797.30
596.53	48222.86
596.73	48300.61
596.94	48139.14
597.14	48429.22
597.34	48232.04
597.54	48534.57
597.74	48093.68
597.95	48244.33
598.15	48260.55
598.35	48420.53
598.55	48552.34
598.75	48228.68
598.96	48813.42
599.16	48470.91
599.36	48534.32
599.56	48433.64
599.76	48266.20
599.97	48699.06
600.17	48497.05
600.37	48577.16
600.57	47984.40
600.77	48718.39
600.97	48500.82
601.18	48999.78
601.38	48564.30
601.58	48820.38
601.78	48653.43
601.98	48509.74
602.18	48743.29
602.39	49168.78
602.59	48863.80
602.79	48816.53
602.99	48815.06
603.19	48794.49
603.39	48588.30
603.60	48718.23
603.80	48767.13
604.00	48746.24
604.20	48828.08
604.40	48862.98
604.60	48770.98
604.80	48698.08
605.01	49012.81
605.21	48869.78
605.41	48849.63
605.61	48564.63
605.81	48941.62
606.01	49267.17
606.21	48788.84
606.42	49149.61
606.62	48715.69
606.82	49200.65
607.02	48995.93
607.22	49220.23
607.42	49490.56
607.62	48944.98
607.82	49347.04
608.03	49246.44
608.23	49063.92
608.43	48835.70
608.63	49335.32
608.83	49103.25
609.03	49049.67
609.23	49096.77
609.43	49225.71
609.63	48883.87
609.84	48863.06
610.04	49408.88
610.24	49395.61
610.44	49379.56
610.64	49083.18
610.84	49341.22
611.04	49600.33
611.24	49358.75
611.44	48822.43
611.64	49385.78
611.85	49374.64
612.05	49358.01
612.25	49452.22
612.45	49121.92
612.65	49450.58
612.85	49466.15
613.05	49209.00
613.25	49639.16
613.45	49427.97
613.65	49375.22
613.85	49133.31
614.05	49484.82
614.25	49563.22
614.46	49277.08
614.66	49145.76
614.86	48944.08
615.06	49094.07
615.26	49440.91
615.46	48745.83
615.66	49515.13
615.86	49548.31
616.06	49158.54
616.26	49292.48
616.46	49793.17
616.66	49375.13
616.86	49757.37
617.06	49361.29
617.26	49688.96
617.46	49408.72
617.66	49221.21
617.86	49170.91
618.07	49439.52
618.27	49323.85
618.47	49279.37
618.67	49377.59
618.87	49432.48
619.07	49159.03
619.27	49136.67
619.47	49223.01
619.67	49542.25
619.87	49170.42
620.07	49447.96
620.27	49351.21
620.47	49053.77
620.67	49328.52
620.87	49299.28
621.07	49468.11
621.27	49356.13
621.47	48953.01
621.67	49329.75
621.87	49098.66
622.07	49590.01
622.27	49407.33
622.47	49124.05
622.67	49326.97
622.87	49012.81
623.07	49435.18
623.27	49730.42
623.47	48904.43
623.67	49303.70
623.87	49663.49
624.07	49447.96
624.27	49054.75
624.47	49307.55
624.67	49123.56
624.87	49219.24
625.07	48788.68
625.27	49269.87
625.47	48940.39
625.67	48899.02
625.87	49201.30
626.07	49092.68
626.27	49389.39
626.47	49304.11
626.67	49228.50
626.87	49030.01
627.07	49426.91
627.27	49259.55
627.47	49473.03
627.67	49257.83
627.87	49083.50
628.07	49439.36
628.27	49109.88
628.47	48910.98
628.67	49363.83
628.86	49445.09
629.06	49123.07
629.26	49104.72
629.46	49505.14
629.66	49299.36
629.86	48750.34
630.06	49177.22
630.26	49067.28
630.46	49374.64
630.66	48997.24
630.86	49095.14
631.06	49188.60
631.26	48960.95
631.46	49591.40
631.66	49246.69
631.86	48986.43
632.06	49473.52
632.26	49040.74
632.45	49033.21
632.65	49127.00
632.85	49250.04
633.05	49213.84
633.25	49244.97
633.45	48959.97
633.65	49015.51
633.85	49581.08
634.05	48772.79
634.25	49118.97
634.45	49094.48
634.65	49381.20
634.84	48987.17
635.04	49128.72
635.24	48715.93
635.44	49045.98
635.64	48685.21
635.84	49043.61
636.04	48968.16
636.24	48939.82
636.44	49009.28
636.64	48420.04
636.84	49246.36
637.03	48560.94
637.23	48794.99
637.43	48929.17
637.63	48633.69
637.83	48967.83
638.03	48859.05
638.23	48506.96
638.43	48836.60
638.62	49085.96
638.82	48241.62
639.02	48942.28
639.22	48585.27
639.42	48916.63
639.62	48538.42
639.82	48645.81
640.02	48611.41
640.21	48910.57
640.41	48308.80
640.61	48729.53
640.81	48710.12
641.01	48592.65
641.21	48435.77
641.41	49107.10
641.61	48384.41
641.80	48457.07
642.00	48768.20
642.20	48738.22
642.40	48177.56
642.60	48604.77
642.80	48802.60
642.99	48364.34
643.19	48607.39
643.39	48227.37
643.59	48527.85
643.79	48360.57
643.99	48635.82
644.19	48642.78
644.38	48148.56
644.58	48462.89
644.78	48399.07
644.98	48279.63
645.18	48396.37
645.38	48727.81
645.57	48247.52
645.77	48466.74
645.97	48237.86
646.17	48642.37
646.37	48439.62
646.56	48244.66
646.76	48312.40
646.96	48397.52
647.16	48123.33
647.36	48320.59
647.55	48032.73
647.75	48291.43
647.95	47855.79
648.15	48157.00
648.35	48159.38
648.55	48258.91
648.74	48103.18
648.94	48247.28
649.14	48495.00
649.34	48149.38
649.54	48054.03
649.73	48059.52
649.93	47832.85
650.13	47927.79
650.33	47740.04
650.52	48100.07
650.72	48212.87
650.92	47935.82
651.12	47744.38
651.32	48063.86
651.51	48148.32
651.71	48083.36
651.91	47858.98
652.11	47683.10
652.30	47580.70
652.50	47969.08
652.70	47966.05
652.90	47557.19
653.10	47944.83
653.29	47681.22
653.49	48086.80
653.69	47598.56
653.89	47668.77
654.08	47752.08
654.28	47980.79
654.48	47812.45
654.68	47913.29
654.87	47721.93
655.07	47458.97
655.27	47882.49
655.47	47450.62
655.66	47517.87
655.86	47417.69
656.06	47914.93
656.26	47117.94
656.45	47626.17
656.65	47468.97
656.85	47409.17
657.04	47217.80
657.24	47287.19
657.44	47095.25
657.64	47625.84
657.83	46653.47
658.03	47433.33
658.23	47255.16
658.43	47064.29
658.62	47203.71
658.82	47039.06
659.02	46975.16
659.21	47119.50
659.41	46866.45
659.61	47325.61
659.81	46998.43
660.00	46730.47
660.20	47197.16
660.40	46926.17
660.59	47117.04
660.79	46705.57
660.99	47136.70
661.19	47131.87
661.38	47047.66
661.58	46499.13
661.78	46783.14
661.97	46499.62
662.17	47170.95
662.37	46602.02
662.56	46554.02
662.76	46475.54
662.96	46607.26
663.15	46731.04
663.35	46563.93
663.55	46336.19
663.74	46157.37
663.94	46613.90
664.14	46032.60
664.33	46427.78
664.53	46164.00
664.73	46717.28
664.93	46164.41
665.12	46659.36
665.32	46330.62
665.52	46430.15
665.71	46286.55
665.91	46374.61
666.10	46148.85
666.30	46463.33
666.50	46049.89
666.69	46002.38
666.89	46257.06
667.09	46542.22
667.28	46028.18
667.48	46045.79
667.68	46066.44
667.87	46154.91
668.07	45746.95
668.27	46252.64
668.46	46036.54
668.66	45799.38
668.86	46179.57
669.05	45749.82
669.25	46012.21
669.44	45756.78
669.64	45683.30
669.84	45690.35
670.03	46104.28
670.23	45736.47
670.43	45694.28
670.62	45730.98
670.82	45770.30
671.01	45958.71
671.21	45581.39
671.41	45632.18
671.60	45770.38
671.80	45982.88
672.00	45672.49
672.19	45758.26
672.39	45656.92
672.58	45534.46
672.78	45365.37
672.98	45837.96
673.17	45496.53
673.37	44981.91
673.56	45211.29
673.76	45278.87
673.96	45596.80
674.15	45333.26
674.35	45393.96
674.54	45279.52
674.74	45213.58
674.94	45200.72
675.13	45337.52
675.33	44961.11
675.52	45448.19
675.72	45400.52
675.91	45272.48
676.11	45608.35
676.31	44945.21
676.50	45089.72
676.70	45105.53
676.89	45267.73
677.09	45395.28
677.28	45378.40
677.48	44894.01
677.68	45302.79
677.87	45010.91
678.07	44993.63
678.26	45002.88
678.46	45088.82
678.65	44806.85
678.85	45177.62
679.04	44580.10
679.24	44852.24
679.44	44583.95
679.63	44689.79
679.83	44426.59
680.02	44564.37
680.22	44485.73
680.41	44827.00
680.61	44662.59
680.80	44526.04
681.00	44628.68
681.19	44537.50
681.39	44307.07
681.59	44246.36
681.78	44252.51
681.98	44526.04
682.17	43970.22
682.37	44362.28
682.56	43940.32
682.76	44379.07
682.95	44052.95
683.15	44119.06
683.34	44026.09
683.54	44126.35
683.73	44058.44
683.93	43795.32
684.12	43966.28
684.32	44190.00
684.51	43734.21
684.71	43972.02
684.90	43949.98
685.10	43874.54
685.29	43757.15
685.49	43970.30
685.68	43829.40
685.88	43784.18
686.07	43472.23
686.27	43897.88
686.46	43685.22
686.66	43479.69
686.85	43805.40
687.05	43575.78
687.24	43486.24
687.44	43904.85
687.63	43738.47
687.83	43330.76
688.02	43586.67
688.22	43692.10
688.41	43368.28
688.61	43335.18
688.80	43433.81
689.00	43049.78
689.19	42906.91
689.39	43447.66
689.58	43379.50
689.77	43307.99
689.97	43367.70
690.16	43128.09
690.36	42749.46
690.55	42671.80
690.75	43333.54
690.94	42840.97
691.14	43126.86
691.33	42698.35
691.53	43001.45
691.72	42792.06
691.91	42821.39
692.11	42740.62
692.30	42793.21
692.50	42808.61
692.69	42433.26
692.89	42660.01
693.08	42443.50
693.28	42370.18
693.47	42658.21
693.66	42529.18
693.86	42432.85
694.05	42293.83
694.25	42410.81
694.44	42523.61
694.64	42359.69
694.83	42310.30
695.02	42329.22
695.22	42442.51
695.41	42150.56
695.61	42066.92
695.80	42183.32
695.99	42164.48
696.19	42194.38
696.38	42228.95
696.58	41848.68
696.77	42377.55
696.96	42130.65
697.16	42029.23
697.35	42030.63
697.55	41977.63
697.74	41752.18
697.93	42187.99
698.13	41742.27
698.32	41992.04
698.52	41684.77
698.71	41251.82
698.90	41937.48
699.10	41449.00
699.29	41555.66
699.49	41893.33
699.68	41450.56
699.87	41355.21
700.07	41620.95
700.26	41371.26
700.45	41314.41
700.65	41106.75
700.84	41532.72
701.04	41129.77
701.23	41379.62
701.42	41214.47
701.62	41079.71
701.81	41117.64
702.00	40993.62
702.20	40759.90
702.39	40880.65
702.58	41127.14
702.78	40776.61
702.97	40778.74
703.17	40904.00
703.36	40841.90
703.55	40670.45
703.75	40634.57
703.94	40740.41
704.13	40478.59
704.33	40387.99
704.52	40770.63
704.71	40513.41
704.91	40527.75
705.10	40249.88
705.29	40392.99
705.49	40391.92
705.68	40415.68
705.87	40385.21
706.07	40032.55
706.26	40455.57
706.45	40031.40
706.65	39880.91
706.84	40285.68
707.03	40550.44
707.23	39958.16
707.42	39862.97
707.61	40078.01
707.80	39850.03
708.00	39808.33
708.19	39548.16
708.38	39921.79
708.58	39255.14
708.77	39924.33
708.96	39433.64
709.16	39444.04
709.35	40081.12
709.54	39691.76
709.74	39572.00
709.93	39258.09
710.12	39826.36
710.31	39858.31
710.51	39438.55
710.70	39416.93
710.89	39536.20
711.09	39131.28
711.28	39040.67
711.47	39343.04
711.66	39221.71
711.86	39099.57
712.05	39108.67
712.24	39445.43
712.43	39031.99
712.63	38711.03
712.82	39152.00
713.01	39011.35
713.21	38582.83
713.40	38764.44
713.59	39118.66
713.78	38519.26
713.98	38982.35
714.17	38549.90
714.36	38641.48
714.55	38205.35
714.75	38296.93
714.94	38417.60
715.13	38631.57
715.32	38113.44
715.52	38322.82
715.71	38004.24
715.90	38126.62
716.09	37881.61
716.29	38271.05
716.48	38109.83
716.67	37654.85
716.86	37995.88
717.06	37944.27
717.25	37974.42
717.44	38073.30
717.63	37982.04
717.82	37623.64
718.02	37847.94
718.21	38023.41
718.40	38071.00
718.59	37864.65
718.79	37586.04
718.98	37599.23
719.17	37746.93
719.36	37764.95
719.55	37582.19
719.75	37429.09
719.94	37422.94
720.13	37736.61
720.32	37577.44
720.51	37364.37
720.71	37340.45
720.90	36856.23
721.09	37214.62
721.28	36982.47
721.47	37369.61
721.67	37093.71
721.86	37021.13
722.05	37017.77
722.24	36617.76
722.43	36997.21
722.63	36774.56
722.82	36847.05
723.01	36953.30
723.20	36636.60
723.39	36741.13
723.58	36957.81
723.78	36568.53
723.97	36963.87
724.16	36585.49
724.35	36661.02
724.54	36372.66
724.73	36572.54
724.93	36155.82
725.12	36404.36
725.31	35662.02
725.50	36071.77
725.69	36265.68
725.88	36070.46
726.08	35716.41
726.27	36167.05
726.46	35525.21
726.65	36357.51
726.84	35770.56
727.03	35856.08
727.23	36184.66
727.42	35690.52
727.61	35811.03
727.80	35650.47
727.99	35778.75
728.18	35912.12
728.37	35674.22
728.56	35523.98
728.76	35463.69
728.95	35627.61
729.14	35489.25
729.33	35410.61
729.52	35426.66
729.71	35366.45
729.90	35278.23
730.09	35063.19
730.29	35217.20
730.48	34759.44
730.67	35163.30
730.86	34707.99
731.05	35160.84
731.24	34804.08
731.43	34973.41
731.62	34602.56
731.81	34658.18
732.01	35039.19
732.20	34740.84
732.39	35000.28
732.58	34905.58
732.77	34459.45
732.96	34891.65
733.15	34901.40
733.34	34501.56
733.53	34566.44
733.72	34561.27
733.92	34351.89
734.11	34239.09
734.30	34212.14
734.49	34350.50
734.68	34042.24
734.87	34073.12
735.06	34034.13
735.25	34111.62
735.44	33868.90
735.63	33963.35
735.82	34042.73
736.01	33893.15
736.20	33871.03
736.40	34105.72
736.59	33953.52
736.78	34140.54
736.97	33736.35
737.16	33799.35
737.35	33801.72
737.54	33891.92
737.73	33691.71
737.92	33772.48
738.11	33864.97
738.30	33689.91
738.49	33657.30
738.68	33594.31
738.87	33691.95
739.06	33487.48
739.25	33579.97
739.44	33460.45
739.63	33363.30
739.82	33148.42
740.01	33441.61
740.20	33136.63
740.39	33209.62
740.59	33197.49
740.78	33268.60
740.97	33005.88
741.16	32834.26
741.35	32946.25
741.54	32823.20
741.73	32900.13
741.92	32749.97
742.11	32784.46
742.30	32835.57
742.49	32486.68
742.68	32756.36
742.87	32632.17
743.06	32280.17
743.25	32583.26
743.44	32445.81
743.63	32677.55
743.82	32388.22
744.01	32340.70
744.20	32149.34
744.39	32490.70
744.58	32335.05
744.77	32168.35
744.96	31880.89
745.15	32195.13
745.34	32021.88
745.53	32170.39
745.72	31967.65
745.91	32061.20
746.10	31821.67
746.29	32077.50
746.48	32027.12
746.67	31955.85
746.86	31908.42
747.04	31847.80
747.23	31726.72
747.42	31937.58
747.61	31699.36
747.80	32050.14
747.99	31457.54
748.18	31778.00
748.37	31644.23
748.56	31284.85
748.75	31475.23
748.94	31428.46
749.13	31401.91
749.32	31224.97
749.51	31361.94
749.70	31345.39
749.89	31238.49
750.08	31346.21
750.27	30902.62
750.46	31036.47
750.65	31270.84
750.84	30865.84
751.02	31089.15
751.21	30906.55
751.40	30996.66
751.59	31078.83
751.78	30981.67
751.97	31026.89
752.16	30790.64
752.35	31013.62
752.54	30575.11
752.73	30861.58
752.92	30510.47
753.11	30558.32
753.30	30617.71
753.49	30781.87
753.67	30670.54
753.86	30448.54
754.05	30650.64
754.24	30376.78
754.43	30428.31
754.62	30408.90
754.81	30168.55
755.00	30288.07
755.19	30248.74
755.38	29826.70
755.56	30163.22
755.75	30347.62
755.94	30022.32
756.13	30081.47
756.32	30158.88
756.51	30022.08
756.70	30091.79
756.89	30040.10
757.08	29913.61
757.26	29923.69
757.45	29866.84
757.64	29592.74
757.83	29812.04
758.02	29588.97
758.21	29545.31
758.40	29608.55
758.59	29561.12
758.77	29423.66
758.96	29559.89
759.15	29579.39
759.34	29247.37
759.53	29519.50
759.72	29424.40
759.91	29204.44
760.09	29454.38
760.28	29410.96
760.47	29121.62
760.66	29392.37
760.85	29018.41
761.04	29370.17
761.23	29279.07
761.41	29178.48
761.60	29274.57
761.79	29123.84
761.98	28893.15
762.17	29073.46
762.36	28715.55
762.54	29074.44
762.73	28899.46
762.92	28650.18
763.11	28996.94
763.30	29024.22
763.49	28938.29
763.67	28845.15
763.86	28898.48
764.05	29019.23
764.24	28877.75
764.43	29055.27
764.61	28595.62
764.80	28676.40
764.99	28994.32
765.18	28588.82
765.37	28739.80
765.55	28753.32
765.74	28624.95
765.93	28429.33
766.12	28682.79
766.31	28536.31
766.49	28528.20
766.68	28615.45
766.87	28477.74
767.06	28330.62
767.25	28482.33
767.43	28497.98
767.62	28314.15
767.81	28449.64
768.00	28292.20
768.19	28155.80
768.37	28200.86
768.56	28229.69
768.75	28245.50
768.94	28296.21
769.12	27978.20
769.31	27987.79
769.50	27995.57
769.69	28105.18
769.88	27706.15
770.06	28276.39
770.25	27949.28
770.44	27846.48
770.63	28060.37
770.81	27998.52
771.00	27847.38
771.19	28005.24
771.38	27982.22
771.56	28136.71
771.75	27553.62
771.94	27893.91
772.13	27883.18
772.31	27637.17
772.50	27879.82
772.69	27646.02
772.88	27921.60
773.06	27533.55
773.25	27635.78
773.44	27702.14
773.62	27577.62
773.81	27585.48
774.00	27429.02
774.19	27455.40
774.37	27311.63
774.56	27525.44
774.75	27170.07
774.94	27399.28
775.12	27230.04
775.31	27351.61
775.50	27234.46
775.68	27221.11
775.87	27080.45
776.06	27107.90
776.25	27214.47
776.43	26998.45
776.62	27314.17
776.81	26897.12
776.99	27132.64
777.18	27131.08
777.37	26833.88
777.55	27015.41
777.74	27018.11
777.93	26989.77
778.12	26950.78
778.30	26802.50
778.49	26809.47
778.68	26942.67
778.86	26905.31
779.05	27011.72
779.24	27017.46
779.42	26802.67
779.61	26740.57
779.80	26767.03
779.98	26842.81
780.17	26938.08
780.36	26623.51
780.54	26924.97
780.73	26521.52
780.92	26946.68
781.10	26680.12
781.29	26664.64
781.48	26517.59
781.66	26552.90
781.85	26654.80
782.04	26412.49
782.22	26483.27
782.41	26306.40
782.60	26462.30
782.78	26402.50
782.97	26486.22
783.16	26114.63
783.34	26263.07
783.53	26318.45
783.71	26102.92
783.90	26196.22
784.09	26215.31
784.27	26184.76
784.46	26145.35
784.65	26233.09
784.83	26008.14
785.02	25911.47
785.20	26198.68
785.39	25685.87
785.58	26113.73
785.76	26051.23
785.95	25985.28
786.14	26092.35
786.32	26061.79
786.51	25944.57
786.69	26086.37
786.88	26002.98
787.07	25932.45
787.25	25967.59
787.44	25951.20
787.62	25870.27
787.81	26032.39
788.00	25992.98
788.18	25953.91
788.37	25956.04
788.55	26264.54
788.74	25959.64
788.93	26053.77
789.11	26200.32
789.30	26035.25
789.48	25899.92
789.67	26040.91
789.86	25983.32
790.04	26015.18
790.23	25926.38
790.41	25778.93
790.60	25952.43
790.78	25883.29
790.97	25664.98
791.16	25806.21
791.34	26162.88
791.53	25726.09
791.71	26143.96
791.90	25945.55
792.08	26046.39
792.27	26129.05
792.46	26070.48
792.64	26172.79
792.83	26072.28
793.01	26150.02
793.20	26065.07
793.38	26039.92
793.57	25995.11
793.75	25981.68
793.94	26041.32
794.12	26257.66
794.31	26033.78
794.50	26276.01
794.68	26388.00
794.87	26263.15
795.05	26453.61
795.24	26267.33
795.42	26139.54
795.61	26525.13
795.79	26496.05
795.98	26167.72
796.16	26364.08
796.35	26441.73
796.53	26196.72
796.72	26446.90
796.90	26503.58
797.09	26430.51
797.27	26345.81
797.46	26261.10
797.64	26421.17
797.83	26346.38
798.01	26450.99
798.20	26562.24
798.38	26434.36
798.57	26633.83
798.75	26614.50
798.94	26223.17
799.12	26989.93
799.31	26634.65
799.49	26631.87
799.68	26528.16
799.86	26482.20
800.05	26495.80
800.23	26420.27
800.42	26298.13
800.60	26531.68
800.79	26248.49
800.97	26312.55
801.16	26577.39
801.34	26251.35
801.53	26230.38
801.71	26357.69
801.90	26127.74
802.08	26434.36
802.27	26235.46
802.45	26159.93
802.64	26262.17
802.82	26445.17
803.00	26004.94
803.19	26251.76
803.37	26410.93
803.56	26156.74
803.74	26141.50
803.93	26305.18
804.11	26182.13
804.30	26061.06
804.48	26207.04
804.67	26218.59
804.85	26067.12
805.03	26305.75
805.22	26002.49
805.40	25936.87
805.59	26137.57
805.77	26153.71
805.96	25959.31
806.14	26046.39
806.32	26113.24
806.51	26424.78
806.69	26075.39
806.88	26064.42
807.06	26063.60
807.25	26039.59
807.43	26014.61
807.61	26144.61
807.80	25982.50
807.98	26175.91
808.17	25989.38
808.35	25882.88
808.53	26173.70
808.72	25995.52
808.90	25986.43
809.09	25945.22
809.27	25959.07
809.45	25694.47
809.64	25982.25
809.82	25764.59
810.01	25793.59
810.19	25835.13
810.37	25724.13
810.56	25611.73
810.74	25830.46
810.93	25599.94
811.11	25637.21
811.29	25550.54
811.48	25624.35
811.66	25589.53
811.84	25563.32
812.03	25464.53
812.21	25555.46
812.40	25594.69
812.58	25754.19
812.76	25431.10
812.95	25608.29
813.13	25294.95
813.31	25479.76
813.50	25486.73
813.68	25428.89
813.86	25465.92
814.05	25519.82
814.23	25175.93
814.42	25256.70
814.60	25104.49
814.78	25240.56
814.97	25170.19
815.15	25224.83
815.33	25238.59
815.52	25087.45
815.70	25193.62
815.88	25222.95
816.07	25027.90
816.25	25121.04
816.43	25118.17
816.62	24907.40
816.80	24973.75
816.98	24883.15
817.17	24808.11
817.35	24860.05
817.53	24898.06
817.72	24989.40
817.90	24685.48
818.08	24753.39
818.26	24888.72
818.45	24662.95
818.63	24902.64
818.81	24799.84
819.00	24545.81
819.18	24848.99
819.36	24728.98
819.55	24661.64
819.73	24544.58
819.91	24725.29
820.09	24630.76
820.28	24737.33
820.46	24501.00
820.64	24792.63
820.83	24526.64
821.01	24555.23
821.19	24457.50
821.38	24528.28
821.56	24437.35
821.74	24452.01
821.92	24307.50
822.11	24505.01
822.29	24198.06
822.47	24238.20
822.65	24340.52
822.84	24460.04
823.02	24125.73
823.20	24503.45
823.39	24196.42
823.57	24247.79
823.75	24307.91
823.93	24115.82
824.12	24168.90
824.30	23975.90
824.48	24026.28
824.66	24128.35
824.85	23651.42
825.03	23961.56
825.21	24000.96
825.39	23915.52
825.58	23998.02
825.76	23900.20
825.94	23977.86
826.12	23849.33
826.31	23745.62
826.49	23755.29
826.67	23704.66
826.85	23668.95
827.03	23649.37
827.22	23740.46
827.40	23551.64
827.58	23552.30
827.76	23591.04
827.95	23472.67
828.13	23408.20
828.31	23510.76
828.49	23609.07
828.67	23486.02
828.86	23370.19
829.04	23439.25
829.22	23387.89
829.40	23214.95
829.58	23259.76
829.77	23284.09
829.95	23275.16
830.13	23213.07
830.31	23171.13
830.49	23185.22
830.68	23190.05
830.86	23050.79
831.04	22992.87
831.22	23037.60
831.40	22994.10
831.59	23116.24
831.77	22913.99
831.95	23117.47
832.13	22790.70
832.31	23014.42
832.50	22985.83
832.68	22843.37
832.86	22863.69
833.04	23069.88
833.22	22757.19
833.40	23190.79
833.59	22827.72
833.77	23042.02
833.95	22518.73
834.13	23136.64
834.31	22869.01
834.49	22871.39
834.67	22900.14
834.86	22905.22
835.04	22724.92
835.22	22856.40
835.40	22740.15
835.58	22643.33
835.76	22682.89
835.95	22666.26
836.13	22566.16
836.31	22436.73
836.49	22593.76
836.67	22660.28
836.85	22524.71
837.03	22505.21
837.21	22626.29
837.40	22432.06
837.58	22219.31
837.76	22380.12
837.94	22333.51
838.12	22527.25
838.30	22247.49
838.48	22320.16
838.66	22261.17
838.85	22206.21
839.03	22280.59
839.21	22134.28
839.39	22063.26
839.57	22180.81
839.75	21960.78
839.93	22047.12
840.11	22090.05
840.29	22017.06
840.47	22089.80
840.66	21976.10
840.84	21969.63
841.02	21877.14
841.20	21982.32
841.38	21961.84
841.56	21940.46
841.74	22152.71
841.92	21866.65
842.10	21824.71
842.28	21929.40
842.46	21772.45
842.65	21687.33
842.83	21832.00
843.01	21878.61
843.19	21569.62
843.37	21766.39
843.55	21630.15
843.73	21710.27
843.91	21724.61
844.09	21579.20
844.27	21754.10
844.45	21524.56
844.63	21536.36
844.81	21557.82
844.99	21580.84
845.17	21465.50
845.35	21605.33
845.54	21386.12
845.72	21378.83
845.90	21407.50
846.08	21413.81
846.26	21240.22
846.44	21466.15
846.62	21225.89
846.80	21256.69
846.98	21309.36
847.16	21264.55
847.34	21282.41
847.52	21206.88
847.70	21076.79
847.88	21223.84
848.06	21040.50
848.24	21097.76
848.42	21058.03
848.60	20909.19
848.78	21035.75
848.96	20992.74
849.14	20890.35
849.32	21057.54
849.50	20805.97
849.68	20992.17
849.86	20933.44
850.04	20796.06
850.22	20744.45
850.40	20648.93
850.58	20782.79
850.76	21073.35
850.94	20461.01
851.12	20787.87
851.30	20611.74
851.48	20740.76
851.66	20518.68
851.84	20470.92
852.02	20506.97
852.20	20642.54
852.38	20413.17
852.56	20452.90
852.74	20513.36
852.92	20369.51
853.10	20270.14
853.28	20404.32
853.46	20065.83
853.64	20399.16
853.82	20174.21
854.00	20253.51
854.18	20112.86
854.36	20029.05
854.54	20122.36
854.72	19967.12
854.90	19919.85
855.07	20029.46
855.25	19918.63
855.43	19963.52
855.61	19931.32
855.79	19899.95
855.97	19982.28
856.15	19936.89
856.33	19877.34
856.51	20052.73
856.69	19801.32
856.87	20017.42
857.05	19851.78
857.23	19948.12
857.41	19699.58
857.59	19775.76
857.77	19743.48
857.94	19714.65
858.12	19845.72
858.30	19729.64
858.48	19692.04
858.66	19658.94
858.84	19808.04
859.02	19574.16
859.20	19492.24
859.38	19696.63
859.56	19592.02
859.74	19557.61
859.92	19572.27
860.09	19371.49
860.27	19522.55
860.45	19275.15
860.63	19304.89
860.81	19361.66
860.99	19193.97
861.17	19050.70
861.35	18758.41
861.53	18645.53
861.70	18579.01
861.88	19060.69
862.06	18997.12
862.24	18676.57
862.42	18663.55
862.60	18954.03
862.78	18981.48
862.96	19092.07
863.14	18894.31
863.31	18997.29
863.49	18879.65
863.67	18914.55
863.85	18854.58
864.03	18922.25
864.21	18853.93
864.39	18893.00
864.56	18683.46
864.74	18779.55
864.92	18643.97
865.10	18617.92
865.28	18662.24
865.46	18816.98
865.64	18446.63
865.81	18670.76
865.99	18347.34
866.17	18573.19
866.35	18403.70
866.53	18455.64
866.71	18458.10
866.88	18412.14
867.06	18246.83
867.24	18347.10
867.42	18196.53
867.60	18256.66
867.78	18157.78
867.95	18289.84
868.13	18047.85
868.31	18218.48
868.49	18249.29
868.67	18146.97
868.84	18063.90
869.02	18146.31
869.20	17790.79
869.38	18078.32
869.56	17922.76
869.73	17855.50
869.91	17994.68
870.09	17938.98
870.27	17795.05
870.45	17813.07
870.62	17775.96
870.80	17882.78
870.98	17796.28
871.16	17773.01
871.34	17817.49
871.51	17869.43
871.69	17662.26
871.87	17715.34
872.05	17572.96
872.23	17668.65
872.40	17524.96
872.58	17682.00
872.76	17530.53
872.94	17514.64
873.11	17526.03
873.29	17377.92
873.47	17472.37
873.65	17392.33
873.83	17286.41
874.00	17288.79
874.18	17332.21
874.36	17236.61
874.54	17277.32
874.71	17141.42
874.89	16999.53
875.07	17070.23
875.25	17052.13
875.42	17064.90
875.60	17031.24
875.78	17238.24
875.96	17025.58
876.13	17177.38
876.31	16987.49
876.49	17006.41
876.66	16839.71
876.84	17170.17
877.02	16947.68
877.20	16958.25
877.37	16974.71
877.55	16933.42
877.73	16905.00
877.91	16847.82
878.08	16978.97
878.26	16872.31
878.44	16845.12
878.61	16828.49
878.79	16783.84
878.97	16776.96
879.15	16863.79
879.32	16842.00
879.50	16769.42
879.68	16865.27
879.85	16666.86
880.03	16873.79
880.21	16719.53
880.38	16873.46
880.56	16692.91
880.74	16846.75
880.92	16647.61
881.09	16769.67
881.27	16739.61
881.45	16755.33
881.62	16709.13
881.80	16649.90
881.98	16587.73
882.15	16752.63
882.33	16573.39
882.51	16613.53
882.68	16501.71
882.86	16701.27
883.04	16441.01
883.21	16500.73
883.39	16641.30
883.57	16514.33
883.74	16513.67
883.92	16556.11
884.10	16565.20
884.27	16542.34
884.45	16427.00
884.63	16590.92
884.80	16555.21
884.98	16567.00
885.16	16526.78
885.33	16507.53
885.51	16547.18
885.69	16492.62
885.86	16501.39
886.04	16538.66
886.21	16360.65
886.39	16615.50
886.57	16332.06
886.74	16618.77
886.92	16552.01
887.10	16546.28
887.27	16530.06
887.45	16502.45
887.62	16487.95
887.80	16488.44
887.98	16698.07
888.15	16586.74
888.33	16507.28
888.51	16695.86
888.68	16569.79
888.86	16633.85
889.03	16523.91
889.21	16671.12
889.39	16669.48
889.56	16684.47
889.74	16574.70
889.91	16702.09
890.09	16592.56
890.27	16656.46
890.44	16623.77
890.62	16598.13
890.79	16604.19
890.97	16658.42
891.14	16561.43
891.32	16592.07
891.50	16459.44
891.67	16558.40
891.85	16484.51
892.02	16470.26
892.20	16586.91
892.38	16488.20
892.55	16349.75
892.73	16476.24
892.90	16407.26
893.08	16513.26
893.25	16456.90
893.43	16629.01
893.60	16452.64
893.78	16620.99
893.96	16509.74
894.13	16618.86
894.31	16715.52
894.48	16527.44
894.66	16604.44
894.83	16586.99
895.01	16549.06
895.18	16632.95
895.36	16553.08
895.53	16645.81
895.71	16505.73
895.89	16584.94
896.06	16443.06
896.24	16506.87
896.41	16435.11
896.59	16513.10
896.76	16305.60
896.94	16450.60
897.11	16476.15
897.29	16513.59
897.46	16369.50
897.64	16480.66
897.81	16375.23
897.99	16240.64
898.16	16451.74
898.34	16426.35
898.51	16417.50
898.69	16239.82
898.86	16352.46
899.04	16383.09
899.21	16231.71
899.39	16349.26
899.56	16278.48
899.74	16428.72
899.91	16258.99
900.09	16235.48
900.26	16250.30
900.44	16115.14
900.61	16151.67
900.79	16276.52
900.96	16144.47
901.14	16118.09
901.31	16026.58
901.49	16075.33
901.66	16069.43
901.84	16124.64
902.01	15976.04
902.19	16050.34
902.36	15902.97
902.54	15935.24
902.71	15855.37
902.88	15898.79
903.06	15690.14
903.23	15949.83
903.41	15724.55
903.58	15767.64
903.76	15651.07
903.93	15737.17
904.11	15827.52
904.28	15674.33
904.45	15697.84
904.63	15659.92
904.80	15501.16
904.98	15567.02
905.15	15492.39
905.33	15571.61
905.50	15495.42
905.68	15548.92
905.85	15464.13
906.02	15432.59
906.20	15471.67
906.37	15269.00
906.55	15196.58
906.72	15400.32
906.90	15238.53
907.07	15190.60
907.24	15252.86
907.42	15147.10
907.59	15138.01
907.77	15066.99
907.94	15031.03
908.11	15078.29
908.29	15000.31
908.46	15008.50
908.64	14920.84
908.81	14967.46
908.98	14849.99
909.16	14919.21
909.33	14823.20
909.51	14699.99
909.68	14718.51
909.85	14710.07
910.03	14691.88
910.20	14596.45
910.37	14579.16
910.55	14563.27
910.72	14497.00
910.90	14433.02
911.07	14386.24
911.24	14263.69
911.42	14412.62
911.59	14225.44
911.76	14330.13
911.94	14217.24
912.11	14228.80
912.29	14222.00
912.46	14104.93
912.63	14172.84
912.81	14030.31
912.98	14151.30
913.15	13976.40
913.33	14059.31
913.50	13985.50
913.67	13908.74
913.85	13868.76
914.02	13850.33
914.19	13818.71
914.37	13734.33
914.54	13784.80
914.71	13715.98
914.89	13683.46
915.06	13659.95
915.23	13609.41
915.41	13553.05
915.58	13559.60
915.75	13488.99
915.93	13464.08
916.10	13413.05
916.27	13331.21
916.45	13320.56
916.62	13204.48
916.79	13322.94
916.97	13169.42
917.14	13218.74
917.31	13100.12
917.49	13117.32
917.66	13175.81
917.83	13063.09
918.00	13043.19
918.18	12964.22
918.35	12913.18
918.52	12991.82
918.70	12875.58
918.87	12889.75
919.04	12869.85
919.21	12835.52
919.39	12716.98
919.56	12778.67
919.73	12604.35
919.91	12677.01
920.08	12632.20
920.25	12525.87
920.42	12705.76
920.60	12517.59
920.77	12476.80
920.94	12518.82
921.11	12378.41
921.29	12438.05
921.46	12281.26
921.63	12422.65
921.81	12313.94
921.98	12316.73
922.15	12289.12
922.32	12314.44
922.50	12240.14
922.67	12189.35
922.84	12165.02
923.01	12082.93
923.19	12075.23
923.36	12078.18
923.53	11850.53
923.70	12021.09
923.87	11907.22
924.05	11926.55
924.22	11834.56
924.39	11846.52
924.56	11721.67
924.74	11766.81
924.91	11780.16
925.08	11694.97
925.25	11621.65
925.43	11648.68
925.60	11527.52
925.77	11633.53
925.94	11554.80
926.11	11503.85
926.29	11431.19
926.46	11452.08
926.63	11428.16
926.80	11410.05
926.97	11300.61
927.15	11347.71
927.32	11229.50
927.49	11197.23
927.66	11137.59
927.83	11203.04
928.01	11053.54
928.18	11079.59
928.35	10952.45
928.52	11038.47
928.69	10875.37
928.87	10873.57
929.04	10875.53
929.21	10883.81
929.38	10782.15
929.55	10827.45
929.72	10735.45
929.90	10758.31
930.07	10748.89
930.24	10647.96
930.41	10617.82
930.58	10610.44
930.75	10680.32
930.93	10597.99
931.10	10615.85
931.27	10481.50
931.44	10491.42
931.61	10453.90
931.78	10496.90
931.95	10449.23
932.13	10376.73
932.30	10469.54
932.47	10262.54
932.64	10296.78
932.81	10278.10
932.98	10277.44
933.15	10281.46
933.33	10223.87
933.50	10291.53
933.67	10213.22
933.84	10249.92
934.01	10261.63
934.18	10238.29
934.35	10217.89
934.52	10192.09
934.70	10220.18
934.87	10152.85
935.04	10065.77
935.21	10057.57
935.38	10019.89
935.55	9984.42
935.72	10107.22
935.89	9942.97
936.06	10000.48
936.24	9892.43
936.41	9963.94
936.58	9883.58
936.75	9834.18
936.92	9797.24
937.09	9816.49
937.26	9690.01
937.43	9726.13
937.60	9719.99
937.77	9697.46
937.94	9656.25
938.12	9649.13
938.29	9609.32
938.46	9646.67
938.63	9554.51
938.80	9612.18
938.97	9522.65
939.14	9480.54
939.31	9456.13
939.48	9470.30
939.65	9397.31
939.82	9343.32
939.99	9389.36
940.16	9334.31
940.33	9288.85
940.50	9283.28
940.67	9238.39
940.85	9290.98
941.02	9214.88
941.19	9234.37
941.36	9175.56
941.53	9148.28
941.70	9125.34
941.87	9039.98
942.04	9085.77
942.21	9060.46
942.38	9035.39
942.55	8982.47
942.72	8969.61
942.89	8989.52
943.06	8918.58
943.23	8922.18
943.40	8833.79
943.57	8871.06
943.74	8886.22
943.91	8853.70
944.08	8829.94
944.25	8868.44
944.42	8748.35
944.59	8752.85
944.76	8758.18
944.93	8771.29
945.10	8724.10
945.27	8731.80
945.44	8639.72
945.61	8694.77
945.78	8591.23
945.95	8625.23
946.12	8540.36
946.29	8575.34
946.46	8556.82
946.63	8511.85
946.80	8521.35
946.97	8447.38
947.14	8411.34
947.31	8435.17
947.48	8413.47
947.65	8384.96
947.82	8376.52
947.99	8378.57
948.16	8316.23
948.33	8381.52
948.50	8277.56
948.67	8316.56
948.84	8288.95
949.01	8259.70
949.18	8269.21
949.35	8241.19
949.52	8136.83
949.68	8164.10
949.85	8127.08
950.02	8108.97
950.19	8081.69
950.36	8088.66
950.53	8060.40
950.70	8030.50
950.87	8009.93
951.04	8053.27
951.21	7968.07
951.38	7926.79
951.55	7931.05
951.72	7932.03
951.89	7897.54
952.06	7913.11
952.23	7927.52
952.39	7852.08
952.56	7805.87
952.73	7873.87
952.90	7793.91
953.07	7845.11
953.24	7757.87
953.41	7764.83
953.58	7711.09
953.75	7781.46
953.92	7700.03
954.09	7671.45
954.25	7638.68
954.42	7618.85
954.59	7605.42
954.76	7585.76
954.93	7546.85
955.10	7587.72
955.27	7506.05
955.44	7539.80
955.61	7469.43
955.77	7550.37
955.94	7466.16
956.11	7531.69
956.28	7488.77
956.45	7448.13
956.62	7430.52
956.79	7448.63
956.96	7449.20
957.12	7453.87
957.29	7441.66
957.46	7417.25
957.63	7374.74
957.80	7364.00
957.97	7336.89
958.14	7384.07
958.30	7240.80
958.47	7252.27
958.64	7258.57
958.81	7276.84
958.98	7216.80
959.15	7218.02
959.32	7222.45
959.48	7178.46
959.65	7131.11
959.82	7158.06
959.99	7118.74
960.16	7130.86
960.33	7065.41
960.49	7084.83
960.66	7041.82
960.83	7072.29
961.00	7009.87
961.17	7042.72
961.33	6975.71
961.50	6989.80
961.67	6935.98
961.84	6948.02
962.01	6927.05
962.18	6948.10
962.34	6909.68
962.51	6939.83
962.68	6861.10
962.85	6914.02
963.02	6855.29
963.18	6868.72
963.35	6777.88
963.52	6824.98
963.69	6834.56
963.86	6817.36
964.02	6753.14
964.19	6797.78
964.36	6728.40
964.53	6749.29
964.69	6665.65
964.86	6717.58
965.03	6639.92
965.20	6674.33
965.37	6576.03
965.53	6592.17
965.70	6582.34
965.87	6599.54
966.04	6546.62
966.20	6548.42
966.37	6508.94
966.54	6462.82
966.71	6562.67
966.87	6501.15
967.04	6503.86
967.21	6481.90
967.38	6459.05
967.54	6499.60
967.71	6480.18
967.88	6479.36
968.05	6428.33
968.21	6384.34
968.38	6333.55
968.55	6382.62
968.72	6348.46
968.88	6321.67
969.05	6330.35
969.22	6297.67
969.39	6272.27
969.55	6312.41
969.72	6272.03
969.89	6254.66
970.05	6291.20
970.22	6258.18
970.39	6230.74
970.56	6242.13
970.72	6209.85
970.89	6240.57
971.06	6184.21
971.22	6166.52
971.39	6146.61
971.56	6170.28
971.73	6115.56
971.89	6150.79
972.06	6112.94
972.23	6122.61
972.39	6055.43
972.56	6076.49
972.73	6025.62
972.89	6080.83
973.06	6081.40
973.23	6019.64
973.39	6010.95
973.56	6033.89
973.73	6021.44
973.89	6009.81
974.06	5954.18
974.23	6003.91
974.39	5941.24
974.56	5940.58
974.73	5910.03
974.89	5877.26
975.06	5872.18
975.23	5915.52
975.39	5851.62
975.56	5857.11
975.73	5858.99
975.89	5845.72
976.06	5821.97
976.23	5795.18
976.39	5801.81
976.56	5796.41
976.73	5785.27
976.89	5767.33
977.06	5751.60
977.23	5728.09
977.39	5704.00
977.56	5700.07
977.72	5654.77
977.89	5681.88
978.06	5661.49
978.22	5650.43
978.39	5641.25
978.56	5660.18
978.72	5603.82
978.89	5608.40
979.05	5597.75
979.22	5604.39
979.39	5577.36
979.55	5587.84
979.72	5552.04
979.88	5570.39
980.05	5545.57
980.22	5568.84
980.38	5519.28
980.55	5525.83
980.71	5489.46
980.88	5510.35
981.05	5514.69
981.21	5474.55
981.38	5479.46
981.54	5499.21
981.71	5431.95
981.88	5447.51
982.04	5462.51
982.21	5455.30
982.37	5430.97
982.54	5448.83
982.70	5406.64
982.87	5414.75
983.04	5346.43
983.20	5413.60
983.37	5332.99
983.53	5384.93
983.70	5335.37
983.86	5338.56
984.03	5337.50
984.20	5324.15
984.36	5319.56
984.53	5322.34
984.69	5282.78
984.86	5264.43
985.02	5288.10
985.19	5280.07
985.35	5252.30
985.52	5252.14
985.68	5229.69
985.85	5234.20
986.02	5207.57
986.18	5216.50
986.35	5194.30
986.51	5205.45
986.68	5196.27
986.84	5161.29
987.01	5153.67
987.17	5181.69
987.34	5168.50
987.50	5146.96
987.67	5104.77
987.83	5155.88
988.00	5093.71
988.16	5093.79
988.33	5075.11
988.49	5100.34
988.66	5070.44
988.82	5065.61
988.99	5048.32
989.15	5048.08
989.32	4999.42
989.48	5002.04
989.65	4989.51
989.81	5013.02
989.98	4965.01
990.14	4938.88
990.31	4960.43
990.47	4940.44
990.64	4933.80
990.80	4901.85
990.97	4902.18
991.13	4922.66
991.30	4911.11
991.46	4905.29
991.63	4886.62
991.79	4881.87
991.95	4852.87
992.12	4901.44
992.28	4857.04
992.45	4850.41
992.61	4847.05
992.78	4848.03
992.94	4835.66
993.11	4842.30
993.27	4801.50
993.44	4819.77
993.60	4793.07
993.76	4820.59
993.93	4777.99
994.09	4794.38
994.26	4762.43
994.42	4769.72
994.59	4743.67
994.75	4768.98
994.91	4726.79
995.08	4706.72
995.24	4694.44
995.41	4709.59
995.57	4683.46
995.74	4697.79
995.90	4675.35
996.06	4677.72
996.23	4658.06
996.39	4653.97
996.56	4633.32
996.72	4661.67
996.88	4640.86
997.05	4657.24
997.21	4600.64
997.38	4643.56
997.54	4583.35
997.70	4602.69
997.87	4589.09
998.03	4595.40
998.20	4564.92
998.36	4571.56
998.52	4539.45
998.69	4573.28
998.85	4520.77
999.02	4534.37
999.18	4535.84
999.34	4520.19
999.51	4520.77
999.67	4515.36
999.83	4518.23
1000.00	4515.93
1000.16	4495.21
1000.33	4503.57
1000.49	4492.26
1000.65	4490.13
1000.82	4502.66
1000.98	4482.02
1001.14	4449.33
1001.31	4492.01
1001.47	4450.89
1001.63	4435.98
1001.80	4424.35
1001.96	4404.61
1002.12	4406.49
1002.29	4427.87
1002.45	4399.04
1002.61	4394.61
1002.78	4362.26
1002.94	4399.61
1003.10	4370.04
1003.27	4366.76
1003.43	4347.10
1003.59	4351.61
1003.76	4351.03
1003.92	4355.21
1004.08	4333.09
1004.25	4351.03
1004.41	4312.78
1004.57	4311.63
1004.74	4280.42
1004.90	4299.26
1005.06	4287.63
1005.23	4286.73
1005.39	4289.10
1005.55	4293.12
1005.71	4291.23
1005.88	4274.27
1006.04	4284.02
1006.20	4269.20
1006.37	4234.79
1006.53	4251.01
1006.69	4247.49
1006.85	4270.83
1007.02	4242.82
1007.18	4248.06
1007.34	4224.55
1007.51	4235.28
1007.67	4190.14
1007.83	4193.75
1007.99	4171.14
1008.16	4193.42
1008.32	4146.40
1008.48	4165.16
1008.64	4167.45
1008.81	4185.15
1008.97	4174.25
1009.13	4171.06
1009.29	4169.75
1009.46	4161.88
1009.62	4145.17
1009.78	4126.33
1009.95	4132.96
1010.11	4154.84
1010.27	4091.76
1010.43	4117.07
1010.59	4122.81
1010.76	4111.91
1010.92	4093.23
1011.08	4080.05
1011.24	4065.05
1011.41	4110.03
1011.57	4086.19
1011.73	4090.53
1011.89	4050.88
1012.06	4066.20
1012.22	4027.86
1012.38	4042.44
1012.54	4018.03
1012.70	4031.88
1012.87	4018.77
1013.03	4020.65
1013.19	4021.06
1013.35	4000.91
1013.51	3989.85
1013.68	4022.70
1013.84	3974.70
1014.00	3995.51
1014.16	3965.11
1014.32	3978.14
1014.49	3968.39
1014.65	4008.94
1014.81	3945.37
1014.97	3968.39
1015.13	3961.67
1015.30	3951.19
1015.46	3933.08
1015.62	3942.09
1015.78	3927.27
1015.94	3944.14
1016.10	3943.40
1016.27	3930.22
1016.43	3898.10
1016.59	3922.93
1016.75	3893.76
1016.91	3913.26
1017.07	3895.40
1017.24	3896.38
1017.40	3883.11
1017.56	3877.46
1017.72	3867.79
1017.88	3880.66
1018.04	3866.48
1018.21	3865.66
1018.37	3864.27
1018.53	3869.68
1018.69	3844.20
1018.85	3842.24
1019.01	3850.92
1019.17	3851.08
1019.34	3812.01
1019.50	3830.77
1019.66	3795.46
1019.82	3821.02
1019.98	3803.00
1020.14	3816.59
1020.30	3826.18
1020.46	3794.23
1020.63	3802.67
1020.79	3782.35
1020.95	3795.95
1021.11	3808.16
1021.27	3765.40
1021.43	3779.24
1021.59	3783.66
1021.75	3775.47
1021.91	3759.91
1022.07	3759.33
1022.24	3761.71
1022.40	3755.89
1022.56	3734.59
1022.72	3754.17
1022.88	3740.16
1023.04	3750.40
1023.20	3730.33
1023.36	3721.57
1023.52	3712.64
1023.68	3741.07
1023.84	3714.28
1024.01	3709.53
1024.17	3689.29
1024.33	3708.71
1024.49	3705.92
1024.65	3704.78
1024.81	3687.24
1024.97	3710.59
1025.13	3693.47
1025.29	3705.27
1025.45	3666.85
1025.61	3691.83
1025.77	3675.53
1025.93	3694.78
1026.09	3665.70
1026.25	3691.26
1026.41	3654.23
1026.57	3675.45
1026.73	3667.26
1026.90	3659.23
1027.06	3658.25
1027.22	3668.08
1027.38	3662.67
1027.54	3662.59
1027.70	3653.58
1027.86	3640.80
1028.02	3653.25
1028.18	3660.54
1028.34	3641.45
1028.50	3647.43
1028.66	3623.27
1028.82	3625.56
1028.98	3629.82
1029.14	3597.38
1029.30	3611.22
1029.46	3610.41
1029.62	3609.09
1029.78	3596.72
1029.94	3609.42
1030.10	3618.11
1030.26	3582.55
1030.42	3608.60
1030.58	3583.62
1030.74	3573.30
1030.90	3566.09
1031.06	3566.66
1031.22	3558.30
1031.38	3565.35
1031.54	3579.52
1031.70	3575.34
1031.86	3568.87
1032.02	3569.45
1032.18	3541.43
1032.34	3543.81
1032.50	3543.40
1032.66	3558.71
1032.82	3525.54
1032.98	3556.34
1033.14	3558.30
1033.30	3547.82
1033.45	3519.39
1033.61	3541.68
1033.77	3527.50
1033.93	3541.35
1034.09	3520.29
1034.25	3533.57
1034.41	3540.45
1034.57	3515.22
1034.73	3512.43
1034.89	3527.34
1035.05	3506.37
1035.21	3506.45
1035.37	3492.93
1035.53	3489.33
1035.69	3478.43
1035.85	3516.61
1036.01	3501.37
1036.16	3493.26
1036.32	3492.44
1036.48	3498.59
1036.64	3474.75
1036.80	3494.98
1036.96	3483.10
1037.12	3485.40
1037.28	3488.10
1037.44	3479.42
1037.60	3486.71
1037.76	3463.20
1037.91	3475.40
1038.07	3477.29
1038.23	3481.87
1038.39	3478.27
1038.55	3457.79
1038.71	3480.48
1038.87	3451.07
1039.03	3491.38
1039.19	3453.37
1039.35	3465.57
1039.50	3465.25
1039.66	3455.91
1039.82	3446.40
1039.98	3451.73
1040.14	3435.67
1040.30	3434.94
1040.46	3422.16
1040.62	3431.58
1040.77	3433.05
1040.93	3452.30
1041.09	3418.63
1041.25	3435.84
1041.41	3433.79
1041.57	3430.35
1041.73	3430.35
1041.88	3430.35

