SpectraSuite Data File
++++++++++++++++++++++++++++++++++++
Date: Tue Sep 20 12:14:39 EDT 2022
User: Laboratoire
Dark Spectrum Present: No
Reference Spectrum Present: No
Number of Sampled Component Spectra: 1
Spectrometers: FLMT00174
Integration Time (usec): 15000 (FLMT00174)
Spectra Averaged: 25 (FLMT00174)
Boxcar Smoothing: 0 (FLMT00174)
Correct for Electrical Dark: No (FLMT00174)
Strobe/Lamp Enabled: No (FLMT00174)
Correct for Detector Non-linearity: No (FLMT00174)
Correct for Stray Light: No (FLMT00174)
Number of Pixels in Processed Spectrum: 3648
>>>>>Begin Processed Spectral Data<<<<<
345.74	3166.90
345.96	3166.90
346.18	3166.90
346.39	3185.49
346.61	3225.14
346.83	3222.60
347.05	3230.79
347.27	3218.26
347.49	3220.31
347.71	3231.45
347.93	3232.02
348.15	3249.72
348.36	3227.60
348.58	3236.77
348.80	3202.12
349.02	3239.97
349.24	3225.14
349.46	3315.42
349.68	3340.40
349.90	3332.70
350.11	3297.89
350.33	3324.51
350.55	3322.05
350.77	3321.07
350.99	3297.64
351.21	3347.94
351.43	3308.53
351.65	3339.99
351.86	3316.48
352.08	3316.40
352.30	3316.89
352.52	3326.72
352.74	3298.21
352.96	3326.15
353.18	3306.65
353.39	3313.94
353.61	3323.53
353.83	3325.33
354.05	3360.47
354.27	3320.58
354.49	3323.44
354.70	3315.50
354.92	3315.74
355.14	3310.83
355.36	3317.38
355.58	3294.85
355.80	3309.68
356.02	3320.00
356.23	3332.70
356.45	3331.06
356.67	3338.03
356.89	3340.32
357.11	3321.64
357.33	3340.07
357.54	3325.41
357.76	3317.96
357.98	3325.33
358.20	3328.03
358.42	3314.43
358.63	3332.13
358.85	3335.73
359.07	3315.58
359.29	3293.87
359.51	3331.39
359.73	3309.11
359.94	3342.61
360.16	3296.98
360.38	3315.17
360.60	3321.97
360.82	3345.07
361.03	3311.65
361.25	3325.66
361.47	3339.01
361.69	3318.61
361.91	3331.39
362.12	3326.97
362.34	3323.94
362.56	3332.37
362.78	3330.65
363.00	3336.88
363.21	3324.84
363.43	3345.15
363.65	3314.27
363.87	3317.05
364.09	3341.38
364.30	3346.63
364.52	3325.00
364.74	3338.93
364.96	3328.03
365.17	3324.92
365.39	3329.83
365.61	3308.29
365.83	3337.62
366.05	3319.59
366.26	3328.03
366.48	3330.90
366.70	3330.65
366.92	3353.51
367.13	3321.72
367.35	3350.97
367.57	3333.85
367.79	3335.40
368.01	3340.16
368.22	3354.98
368.44	3335.08
368.66	3342.20
368.88	3338.52
369.09	3332.37
369.31	3340.56
369.53	3327.54
369.75	3319.92
369.96	3346.30
370.18	3347.28
370.40	3342.86
370.62	3320.74
370.83	3353.02
371.05	3363.17
371.27	3368.83
371.49	3334.67
371.70	3360.88
371.92	3342.28
372.14	3350.48
372.36	3341.96
372.57	3351.38
372.79	3353.26
373.01	3363.09
373.22	3345.89
373.44	3343.35
373.66	3344.66
373.88	3355.31
374.09	3339.01
374.31	3344.74
374.53	3345.73
374.75	3365.39
374.96	3347.45
375.18	3375.54
375.40	3356.05
375.61	3347.53
375.83	3339.34
376.05	3350.39
376.27	3358.50
376.48	3352.61
376.70	3369.81
376.92	3351.54
377.13	3367.27
377.35	3352.03
377.57	3351.46
377.79	3358.67
378.00	3369.89
378.22	3372.02
378.44	3341.22
378.65	3374.64
378.87	3377.26
379.09	3373.99
379.30	3371.69
379.52	3382.92
379.74	3354.65
379.96	3379.15
380.17	3364.73
380.39	3375.63
380.61	3370.30
380.82	3376.12
381.04	3380.62
381.26	3380.62
381.47	3383.82
381.69	3402.50
381.91	3385.78
382.12	3373.82
382.34	3416.09
382.56	3386.77
382.77	3382.43
382.99	3402.99
383.21	3388.57
383.42	3413.06
383.64	3388.98
383.86	3400.28
384.07	3412.08
384.29	3399.38
384.51	3386.19
384.72	3397.09
384.94	3403.40
385.16	3401.10
385.37	3406.18
385.59	3401.35
385.81	3407.57
386.02	3412.57
386.24	3422.73
386.46	3412.49
386.67	3436.41
386.89	3437.31
387.11	3442.39
387.32	3429.77
387.54	3425.10
387.76	3437.31
387.97	3458.45
388.19	3447.14
388.40	3418.22
388.62	3436.74
388.84	3460.41
389.05	3449.19
389.27	3458.28
389.49	3467.54
389.70	3442.64
389.92	3463.69
390.14	3459.84
390.35	3472.29
390.57	3461.97
390.78	3458.28
391.00	3465.25
391.22	3474.01
391.43	3464.92
391.65	3472.04
391.86	3498.34
392.08	3509.15
392.30	3495.23
392.51	3491.38
392.73	3523.49
392.95	3501.13
393.16	3491.13
393.38	3528.49
393.59	3498.91
393.81	3530.53
394.03	3519.15
394.24	3527.34
394.46	3514.48
394.67	3528.08
394.89	3518.41
395.11	3523.98
395.32	3574.85
395.54	3579.77
395.75	3546.26
395.97	3548.47
396.19	3535.20
396.40	3567.81
396.62	3562.07
396.83	3560.68
397.05	3558.47
397.26	3569.77
397.48	3566.82
397.70	3567.23
397.91	3579.77
398.13	3609.26
398.34	3594.84
398.56	3585.99
398.78	3614.42
398.99	3662.18
399.21	3606.72
399.42	3627.61
399.64	3580.59
399.85	3614.09
400.07	3636.95
400.29	3645.47
400.50	3641.29
400.72	3648.82
400.93	3644.24
401.15	3653.00
401.36	3669.14
401.58	3675.45
401.79	3690.44
402.01	3686.34
402.23	3684.79
402.44	3702.65
402.66	3716.65
402.87	3700.27
403.09	3692.16
403.30	3723.04
403.52	3694.78
403.73	3709.61
403.95	3732.46
404.16	3742.46
404.38	3756.14
404.60	3738.94
404.81	3750.40
405.03	3772.69
405.24	3773.18
405.46	3788.17
405.67	3782.27
405.89	3781.29
406.10	3770.06
406.32	3795.21
406.53	3805.70
406.75	3807.42
406.96	3815.12
407.18	3802.75
407.39	3838.55
407.61	3844.04
407.82	3828.39
408.04	3865.75
408.25	3839.12
408.47	3859.44
408.68	3879.26
408.90	3880.98
409.12	3895.89
409.33	3908.92
409.55	3888.93
409.76	3924.56
409.98	3927.02
410.19	3927.92
410.41	3935.29
410.62	3951.19
410.84	3935.79
411.05	3963.23
411.27	4006.97
411.48	3980.92
411.70	3980.84
411.91	4005.01
412.12	4013.20
412.34	3985.92
412.55	4001.65
412.77	4018.77
412.98	4039.41
413.20	4027.70
413.41	4045.72
413.63	4059.16
413.84	4066.86
414.06	4088.24
414.27	4091.27
414.49	4098.07
414.70	4101.75
414.92	4119.86
415.13	4117.81
415.35	4137.47
415.56	4131.00
415.78	4130.92
415.99	4172.20
416.21	4157.62
416.42	4167.94
416.63	4195.88
416.85	4213.41
417.06	4193.26
417.28	4186.13
417.49	4263.05
417.71	4235.45
417.92	4227.66
418.14	4253.14
418.35	4264.28
418.57	4286.64
418.78	4302.95
418.99	4308.11
419.21	4316.54
419.42	4294.43
419.64	4310.16
419.85	4338.01
420.07	4365.78
420.28	4360.70
420.50	4358.24
420.71	4378.07
420.92	4388.80
421.14	4401.33
421.35	4401.25
421.57	4415.83
421.78	4455.64
422.00	4437.13
422.21	4480.14
422.42	4458.76
422.64	4454.66
422.85	4498.24
423.07	4537.64
423.28	4512.74
423.50	4537.32
423.71	4554.11
423.92	4589.66
424.14	4539.61
424.35	4593.10
424.57	4601.70
424.78	4662.73
424.99	4646.35
425.21	4652.58
425.42	4651.18
425.64	4666.67
425.85	4699.19
426.06	4676.66
426.28	4699.19
426.49	4754.81
426.71	4736.87
426.92	4781.02
427.13	4799.62
427.35	4832.22
427.56	4861.96
427.78	4822.31
427.99	4852.29
428.20	4891.29
428.42	4921.27
428.63	4924.71
428.84	4887.27
429.06	4919.22
429.27	4946.01
429.49	4951.91
429.70	5017.20
429.91	4976.97
430.13	5019.90
430.34	5000.65
430.56	5055.29
430.77	5091.17
430.98	5057.42
431.20	5094.61
431.41	5146.05
431.62	5145.73
431.84	5121.97
432.05	5185.62
432.26	5197.25
432.48	5160.31
432.69	5222.40
432.91	5252.79
433.12	5273.77
433.33	5279.83
433.55	5359.86
433.76	5339.71
433.97	5328.49
434.19	5353.47
434.40	5431.21
434.61	5408.77
434.83	5445.63
435.04	5397.95
435.25	5463.98
435.47	5473.65
435.68	5450.63
435.89	5557.86
436.11	5520.34
436.32	5577.03
436.53	5555.89
436.75	5576.62
436.96	5601.52
437.17	5578.34
437.39	5603.65
437.60	5633.55
437.81	5687.54
438.03	5704.58
438.24	5716.04
438.45	5799.77
438.67	5759.22
438.88	5818.52
439.09	5858.91
439.31	5864.07
439.52	5901.51
439.73	5874.72
439.94	5875.05
440.16	5897.00
440.37	5864.97
440.58	5987.61
440.80	5981.54
441.01	5979.50
441.22	6111.79
441.44	6069.93
441.65	6056.50
441.86	6077.55
442.08	6140.96
442.29	6112.37
442.50	6200.18
442.71	6148.33
442.93	6205.26
443.14	6196.66
443.35	6310.94
443.57	6233.44
443.78	6284.97
443.99	6341.99
444.20	6303.40
444.42	6337.64
444.63	6359.68
444.84	6420.22
445.06	6465.60
445.27	6411.29
445.48	6431.11
445.69	6482.72
445.91	6501.07
446.12	6477.56
446.33	6560.71
446.54	6630.50
446.76	6564.56
446.97	6616.91
447.18	6629.93
447.39	6680.15
447.61	6702.43
447.82	6752.15
448.03	6705.79
448.25	6766.82
448.46	6844.80
448.67	6892.89
448.88	6840.38
449.10	6916.32
449.31	6939.99
449.52	6916.07
449.73	6985.21
449.95	7086.30
450.16	7020.85
450.37	7111.28
450.58	7238.34
450.79	7088.68
451.01	7156.75
451.22	7135.45
451.43	7182.64
451.64	7303.55
451.86	7258.74
452.07	7318.21
452.28	7348.93
452.49	7444.12
452.71	7388.17
452.92	7410.04
453.13	7469.27
453.34	7498.68
453.55	7586.99
453.77	7671.45
453.98	7637.69
454.19	7544.39
454.40	7678.82
454.62	7775.24
454.83	7666.86
455.04	7815.79
455.25	7704.62
455.46	8047.70
455.68	7877.88
455.89	7866.49
456.10	7955.70
456.31	7995.11
456.52	8002.07
456.74	8019.93
456.95	8203.67
457.16	8146.90
457.37	8211.54
457.58	8229.23
457.80	8238.49
458.01	8266.67
458.22	8560.02
458.43	8397.00
458.64	8459.18
458.86	8346.70
459.07	8513.65
459.28	8461.63
459.49	8594.67
459.70	8794.80
459.91	8710.91
460.13	8712.63
460.34	8800.86
460.55	8751.87
460.76	8927.42
460.97	8907.76
461.19	8869.42
461.40	9130.50
461.61	9007.29
461.82	9093.15
462.03	9200.87
462.24	9155.08
462.46	9136.73
462.67	9216.43
462.88	9351.68
463.09	9322.60
463.30	9487.99
463.51	9362.00
463.72	9579.74
463.94	9637.25
464.15	9630.61
464.36	9545.01
464.57	9807.39
464.78	9838.44
464.99	9886.28
465.20	9826.97
465.42	10020.47
465.63	10001.21
465.84	10009.08
466.05	10147.03
466.26	10214.86
466.47	10340.52
466.68	10246.64
466.90	10413.18
467.11	10424.32
467.32	10537.04
467.53	10660.91
467.74	10500.26
467.95	10634.77
468.16	10798.53
468.37	10837.28
468.59	10880.78
468.80	11089.26
469.01	10910.10
469.22	11130.22
469.43	11396.13
469.64	11209.93
469.85	11391.38
470.06	11473.87
470.28	11613.54
470.49	11418.74
470.70	11672.52
470.91	11858.72
471.12	11752.72
471.33	11986.35
471.54	11945.31
471.75	12021.17
471.96	12327.71
472.17	12234.73
472.39	12544.46
472.60	12287.24
472.81	12627.45
473.02	12559.78
473.23	12841.17
473.44	12884.75
473.65	12826.76
473.86	12977.81
474.07	13094.38
474.28	13139.11
474.49	13474.98
474.71	13434.59
474.92	13588.27
475.13	13523.47
475.34	13639.72
475.55	13727.70
475.76	13844.19
475.97	14184.64
476.18	14158.75
476.39	14351.43
476.60	14428.76
476.81	14512.15
477.02	14689.01
477.23	14699.01
477.44	14715.56
477.65	14938.29
477.87	15194.13
478.08	15210.43
478.29	15300.21
478.50	15584.06
478.71	15522.70
478.92	15711.77
479.13	15764.36
479.34	15842.02
479.55	16001.11
479.76	16033.14
479.97	16187.47
480.18	16569.54
480.39	16373.18
480.60	16745.67
480.81	16839.38
481.02	16929.33
481.23	16987.00
481.44	17285.35
481.65	17420.27
481.86	17659.31
482.07	17328.03
482.28	18103.31
482.49	17848.29
482.71	17997.14
482.92	18206.77
483.13	18422.05
483.34	18335.71
483.55	18479.89
483.76	18488.00
483.97	18893.58
484.18	18910.29
484.39	19061.92
484.60	19032.59
484.81	19473.15
485.02	19362.07
485.23	19740.94
485.44	19796.65
485.65	20010.54
485.86	19911.99
486.07	20299.47
486.28	20250.07
486.49	20525.32
486.70	20651.96
486.91	20924.67
487.12	20790.57
487.33	20814.41
487.54	21297.48
487.75	21383.58
487.96	21504.25
488.17	21429.13
488.38	21678.73
488.59	21770.24
488.80	22011.40
489.01	22062.52
489.22	22370.13
489.43	22398.80
489.64	22272.23
489.85	22827.23
490.06	22465.32
490.26	22866.64
490.47	22792.58
490.68	23174.16
490.89	23500.36
491.10	23104.28
491.31	23486.84
491.52	23845.65
491.73	23769.38
491.94	23748.16
492.15	24062.08
492.36	24244.76
492.57	24263.10
492.78	24317.83
492.99	24477.73
493.20	24707.76
493.41	24819.09
493.62	24882.90
493.83	24931.73
494.04	25070.00
494.25	25310.60
494.46	25370.07
494.67	25314.86
494.88	25567.33
495.08	25675.88
495.29	25807.11
495.50	26165.01
495.71	26080.88
495.92	26317.46
496.13	26425.10
496.34	26285.35
496.55	26468.44
496.76	26848.71
496.97	26462.79
497.18	26930.79
497.39	26913.26
497.60	27421.81
497.81	27015.00
498.02	27386.83
498.22	27091.84
498.43	27690.34
498.64	27736.30
498.85	27772.50
499.06	27805.60
499.27	28200.45
499.48	27662.49
499.69	28075.60
499.90	28212.57
500.11	28499.70
500.32	28797.39
500.52	28459.07
500.73	28972.61
500.94	28930.10
501.15	28982.28
501.36	29061.25
501.57	28990.39
501.78	29220.42
501.99	29525.98
502.20	29444.96
502.41	29627.39
502.61	29598.15
502.82	29934.91
503.03	29725.86
503.24	30251.78
503.45	30006.26
503.66	30341.64
503.87	30282.09
504.08	30613.77
504.28	30451.49
504.49	30630.08
504.70	30760.49
504.91	30944.23
505.12	30708.96
505.33	31231.93
505.54	31183.19
505.75	31266.83
505.95	31555.76
506.16	31481.87
506.37	31352.52
506.58	31885.97
506.79	31551.58
507.00	32024.99
507.21	31690.02
507.41	31909.89
507.62	32127.71
507.83	32551.15
508.04	32109.28
508.25	32665.51
508.46	32360.53
508.67	32816.82
508.87	32585.07
509.08	33117.62
509.29	32905.37
509.50	33069.04
509.71	33263.03
509.92	33349.04
510.12	33167.84
510.33	33379.92
510.54	33212.07
510.75	33508.37
510.96	33780.51
511.17	34084.34
511.37	34025.20
511.58	34226.72
511.79	34020.37
512.00	33995.30
512.21	34418.49
512.42	34385.07
512.62	34553.16
512.83	34733.30
513.04	34622.22
513.25	34968.08
513.46	34287.75
513.66	35204.09
513.87	34934.01
514.08	35372.52
514.29	35131.59
514.50	35321.24
514.71	35605.66
514.91	35449.60
515.12	35374.15
515.33	35838.06
515.54	35644.49
515.75	36038.35
515.95	35785.80
516.16	35948.81
516.37	36393.47
516.58	36408.05
516.78	36227.34
516.99	36514.14
517.20	36645.37
517.41	36635.46
517.62	36814.86
517.82	36708.37
518.03	37225.27
518.24	37477.42
518.45	36853.77
518.66	37287.29
518.86	37011.63
519.07	37561.14
519.28	36909.64
519.49	37669.52
519.69	37749.31
519.90	37882.92
520.11	38068.71
520.32	37969.67
520.52	38296.52
520.73	37927.32
520.94	38384.59
521.15	38363.04
521.36	38033.40
521.56	38814.82
521.77	38143.25
521.98	38851.11
522.19	38431.77
522.39	38768.95
522.60	38722.17
522.81	38967.27
523.02	38741.26
523.22	39118.74
523.43	39399.64
523.64	39180.18
523.84	39363.11
524.05	39715.60
524.26	39577.98
524.47	39411.19
524.67	39690.70
524.88	39831.85
525.09	40185.82
525.30	39929.66
525.50	39919.91
525.71	40132.32
525.92	40206.30
526.13	40409.54
526.33	40274.62
526.54	40070.88
526.75	40388.57
526.95	40806.68
527.16	40116.43
527.37	40751.22
527.58	40859.76
527.78	40894.09
527.99	41151.23
528.20	41411.07
528.40	41019.26
528.61	40799.06
528.82	41318.51
529.03	41093.15
529.23	41105.19
529.44	41535.67
529.65	41540.18
529.85	41605.63
530.06	41562.22
530.27	41655.44
530.47	41351.52
530.68	42324.55
530.89	41495.86
531.09	42215.60
531.30	41991.88
531.51	41720.48
531.72	42304.32
531.92	42309.64
532.13	42564.00
532.34	42444.15
532.54	42499.20
532.75	42694.41
532.96	42583.17
533.16	42880.45
533.37	43046.50
533.58	42787.80
533.78	43182.40
533.99	43272.35
534.20	42784.44
534.40	43118.18
534.61	43262.77
534.82	43361.81
535.02	43424.80
535.23	43475.92
535.44	43783.28
535.64	43565.37
535.85	43724.05
536.06	43680.88
536.26	43682.11
536.47	43642.95
536.68	44114.97
536.88	43508.60
537.09	44138.15
537.29	43701.03
537.50	44478.03
537.71	44034.11
537.91	44258.08
538.12	44466.97
538.33	44229.74
538.53	44432.48
538.74	44552.58
538.95	44612.46
539.15	44372.68
539.36	44823.15
539.56	45079.64
539.77	44645.88
539.98	44787.85
540.18	45023.53
540.39	44674.96
540.60	44977.65
540.80	45181.22
541.01	45156.89
541.21	45117.00
541.42	45361.52
541.63	45186.30
541.83	45551.49
542.04	45493.91
542.25	45447.38
542.45	45607.94
542.66	45609.66
542.86	45803.56
543.07	44877.47
543.28	45844.76
543.48	45754.57
543.69	46117.31
543.89	45783.98
544.10	46406.89
544.31	46218.15
544.51	45979.27
544.72	46215.69
544.92	46068.40
545.13	46502.41
545.33	46369.21
545.54	46081.67
545.75	46326.94
545.95	46095.76
546.16	46216.51
546.36	46765.12
546.57	45966.25
546.78	45537.73
546.98	46167.20
547.19	45462.53
547.39	46476.28
547.60	46651.66
547.80	47261.55
548.01	47258.76
548.22	46808.46
548.42	46915.36
548.63	47071.09
548.83	46939.03
549.04	47161.77
549.24	46744.31
549.45	47159.64
549.65	47558.75
549.86	46875.38
550.07	47085.75
550.27	47487.48
550.48	47570.05
550.68	47446.19
550.89	47510.34
551.09	47753.47
551.30	47529.75
551.50	47663.85
551.71	47381.56
551.91	47389.75
552.12	47580.87
552.33	47882.74
552.53	47289.07
552.74	48029.13
552.94	48039.94
553.15	47817.20
553.35	48059.93
553.56	47627.56
553.76	48219.75
553.97	47833.59
554.17	48073.20
554.38	48657.94
554.58	47960.15
554.79	48524.90
554.99	47880.69
555.20	47998.00
555.40	48519.08
555.61	48089.34
555.81	47995.21
556.02	48857.16
556.22	48590.43
556.43	48440.60
556.63	48580.03
556.84	48698.73
557.04	49240.13
557.25	48592.89
557.45	48935.07
557.66	48739.61
557.86	48544.56
558.07	49115.21
558.27	48714.13
558.48	48721.26
558.68	48847.99
558.89	48844.14
559.09	48778.44
559.30	48582.73
559.50	48846.51
559.71	48542.76
559.91	49330.57
560.12	48942.11
560.32	48942.19
560.53	49184.92
560.73	48897.38
560.94	49235.54
561.14	48857.08
561.35	49371.45
561.55	49207.61
561.76	49386.27
561.96	48769.59
562.17	49403.23
562.37	49667.34
562.57	49409.87
562.78	49232.76
562.98	49542.74
563.19	49521.52
563.39	49621.71
563.60	49562.65
563.80	48987.08
564.01	49673.48
564.21	49375.46
564.42	49161.98
564.62	49429.53
564.82	49805.29
565.03	49474.83
565.23	49599.84
565.44	49899.91
565.64	49685.52
565.85	50029.17
566.05	49760.97
566.25	50027.29
566.46	49712.80
566.66	49914.73
566.87	49871.73
567.07	49772.69
567.28	49841.74
567.48	50147.63
567.68	49417.24
567.89	50397.89
568.09	49903.35
568.30	49896.71
568.50	50202.43
568.71	50049.33
568.91	50290.00
569.11	49967.98
569.32	50005.25
569.52	50177.61
569.73	49619.09
569.93	50278.04
570.13	49979.94
570.34	49771.29
570.54	50217.18
570.75	49938.98
570.95	49966.34
571.15	49875.00
571.36	50440.57
571.56	49937.42
571.77	49994.11
571.97	49591.97
572.17	50341.61
572.38	50247.90
572.58	50501.43
572.79	50234.13
572.99	50317.45
573.19	50140.17
573.40	49906.13
573.60	50022.70
573.81	49851.98
574.01	50245.68
574.21	50080.13
574.42	50121.17
574.62	49979.04
574.82	50481.28
575.03	50235.44
575.23	50682.15
575.43	50354.88
575.64	50260.51
575.84	50751.86
576.05	50162.70
576.25	50400.67
576.45	50165.65
576.66	50663.14
576.86	50175.73
577.06	50542.07
577.27	50476.04
577.47	50494.31
577.67	50342.84
577.88	50009.27
578.08	50471.62
578.28	50799.13
578.49	50558.04
578.69	50699.43
578.89	50529.94
579.10	50563.45
579.30	51189.96
579.50	50655.52
579.71	50309.66
579.91	50851.31
580.11	50518.64
580.32	50473.66
580.52	50489.15
580.72	51037.27
580.93	50346.28
581.13	50497.26
581.33	50849.59
581.54	50506.60
581.74	50581.06
581.94	50714.01
582.15	50991.96
582.35	50467.36
582.55	50710.25
582.76	50300.57
582.96	50914.55
583.16	50538.05
583.37	50907.26
583.57	50480.14
583.77	51017.69
583.97	49963.80
584.18	50999.01
584.38	50872.69
584.58	50523.63
584.79	50866.14
584.99	50609.49
585.19	50460.56
585.40	50429.92
585.60	50843.12
585.80	50453.84
586.00	50984.35
586.21	50926.84
586.41	50916.84
586.61	51054.47
586.82	50631.19
587.02	50507.50
587.22	50758.00
587.42	50240.69
587.63	50846.64
587.83	50252.40
588.03	50736.95
588.23	50326.37
588.44	50568.69
588.64	50336.61
588.84	50575.82
589.05	50682.31
589.25	50655.44
589.45	50589.66
589.65	50615.30
589.86	50843.12
590.06	50857.45
590.26	50609.24
590.46	50943.96
590.67	50225.53
590.87	50953.95
591.07	50927.74
591.27	50429.43
591.48	50902.10
591.68	50335.88
591.88	51334.63
592.08	50513.56
592.29	50892.84
592.49	50697.38
592.69	50966.82
592.89	50550.83
593.10	50756.28
593.30	50590.48
593.50	51262.54
593.70	50065.14
593.90	51156.87
594.11	50828.45
594.31	50904.07
594.51	51110.50
594.71	51119.59
594.92	51030.22
595.12	50703.45
595.32	50755.55
595.52	50971.65
595.72	50330.80
595.93	51187.50
596.13	50944.86
596.33	50481.45
596.53	50923.23
596.73	50807.89
596.94	50632.26
597.14	50998.60
597.34	50729.91
597.54	50978.45
597.74	50697.55
597.95	50772.75
598.15	50870.31
598.35	51017.36
598.55	51028.09
598.75	50789.87
598.96	51106.00
599.16	50694.76
599.36	50707.54
599.56	50609.32
599.76	50388.88
599.97	51080.35
600.17	50923.56
600.37	51119.84
600.57	50469.24
600.77	51244.03
600.97	50960.51
601.18	51523.94
601.38	50993.52
601.58	51224.78
601.78	50800.60
601.98	50579.91
602.18	50815.10
602.39	51191.27
602.59	50884.65
602.79	50582.04
602.99	50833.78
603.19	50857.13
603.39	50668.22
603.60	50829.19
603.80	50938.64
604.00	50751.21
604.20	50730.32
604.40	50986.48
604.60	50677.56
604.80	50588.35
605.01	50735.39
605.21	50439.01
605.41	50353.24
605.61	50235.77
605.81	50634.96
606.01	50963.62
606.21	50461.95
606.42	50844.26
606.62	50519.38
606.82	50946.50
607.02	50483.25
607.22	50538.87
607.42	50865.65
607.62	50251.25
607.82	50381.18
608.03	50523.06
608.23	50417.80
608.43	50288.69
608.63	50803.63
608.83	50592.69
609.03	50495.45
609.23	50484.31
609.43	50522.65
609.63	50344.31
609.84	50258.46
610.04	50823.13
610.24	50702.95
610.44	50566.07
610.64	50255.43
610.84	50461.21
611.04	50915.21
611.24	50627.02
611.44	49961.02
611.64	50488.00
611.85	50472.68
612.05	50276.98
612.25	50384.86
612.45	50027.78
612.65	50425.66
612.85	50466.78
613.05	49984.45
613.25	50409.28
613.45	50124.12
613.65	50213.41
613.85	49832.90
614.05	50242.82
614.25	50386.67
614.46	50080.86
614.66	49800.87
614.86	49688.72
615.06	49880.00
615.26	50346.69
615.46	49564.28
615.66	50227.33
615.86	50188.01
616.06	49738.85
616.26	49887.04
616.46	50562.96
616.66	50040.31
616.86	50388.96
617.06	49826.83
617.26	50264.20
617.46	49934.97
617.66	49707.97
617.86	49512.43
618.07	49864.68
618.27	49662.59
618.47	49567.32
618.67	49706.09
618.87	49784.40
619.07	49488.51
619.27	49389.80
619.47	49330.16
619.67	49680.85
619.87	49275.85
620.07	49700.11
620.27	49739.84
620.47	49470.16
620.67	49742.70
620.87	49720.99
621.07	49769.74
621.27	49434.44
621.47	49137.98
621.67	49578.29
621.87	49191.88
622.07	49673.81
622.27	49628.43
622.47	49292.48
622.67	49393.24
622.87	49188.11
623.07	49708.30
623.27	50027.37
623.47	49135.19
623.67	49534.88
623.87	49925.96
624.07	49703.38
624.27	49033.86
624.47	49326.39
624.67	49172.55
624.87	49203.51
625.07	48781.80
625.27	49314.27
625.47	48838.57
625.67	48863.31
625.87	49090.06
626.07	49060.73
626.27	49128.39
626.47	49043.20
626.67	48857.98
626.87	48618.12
627.07	49027.47
627.27	48994.54
627.47	49216.78
627.67	48913.11
627.87	48848.15
628.07	49179.02
628.27	48908.77
628.47	48646.47
628.67	49117.34
628.86	49028.13
629.06	48552.42
629.26	48525.14
629.46	48808.67
629.66	48616.98
629.86	48204.02
630.06	48644.91
630.26	48491.89
630.46	48838.65
630.66	48183.79
630.86	48331.24
631.06	48286.76
631.26	48127.51
631.46	48601.08
631.66	48543.82
631.86	48149.22
632.06	48561.11
632.26	48161.92
632.45	47902.23
632.65	48060.67
632.85	48143.98
633.05	48063.29
633.25	48257.60
633.45	48032.08
633.65	48126.53
633.85	48701.43
634.05	47848.41
634.25	48183.46
634.45	48022.82
634.65	48360.00
634.84	47883.39
635.04	48123.74
635.24	47840.47
635.44	48261.86
635.64	47991.03
635.84	48116.12
636.04	47854.97
636.24	47854.39
636.44	47829.74
636.64	47223.54
636.84	48187.15
637.03	47374.02
637.23	47739.71
637.43	47704.73
637.63	47522.21
637.83	47722.42
638.03	47883.15
638.23	47311.19
638.43	47808.44
638.62	47898.14
638.82	46893.41
639.02	47710.87
639.22	47368.45
639.42	47562.68
639.62	47312.99
639.82	47464.05
640.02	47511.89
640.21	47522.79
640.41	47029.31
640.61	47380.82
640.81	47210.59
641.01	47115.73
641.21	46930.27
641.41	47393.85
641.61	46869.73
641.80	46964.27
642.00	47156.45
642.20	47264.91
642.40	46590.31
642.60	47035.45
642.80	47171.77
642.99	46697.70
643.19	47203.71
643.39	46584.33
643.59	46903.89
643.79	46815.42
643.99	47054.05
644.19	46825.99
644.38	46397.31
644.58	46588.42
644.78	46326.61
644.98	46348.15
645.18	46530.10
645.38	46758.98
645.57	46269.84
645.77	46144.26
645.97	45922.26
646.17	46249.11
646.37	46155.48
646.56	45986.56
646.76	46117.39
646.96	46188.66
647.16	46125.42
647.36	46339.23
647.55	46214.63
647.75	46281.39
647.95	46042.68
648.15	46245.43
648.35	46057.01
648.55	46167.03
648.74	45930.53
648.94	45921.52
649.14	46372.07
649.34	46052.10
649.54	45992.79
649.73	46156.96
649.93	45880.07
650.13	45794.38
650.33	45539.12
650.52	45755.47
650.72	45949.78
650.92	45542.81
651.12	45411.17
651.32	45671.59
651.51	45676.83
651.71	45676.75
651.91	45588.85
652.11	45534.54
652.30	45579.76
652.50	45943.48
652.70	45889.98
652.90	45511.11
653.10	45626.12
653.29	45360.54
653.49	45674.86
653.69	45215.05
653.89	45350.71
654.08	45063.67
654.28	45633.99
654.48	45205.39
654.68	45402.65
654.87	45007.88
655.07	44932.19
655.27	45188.27
655.47	44725.43
655.66	44783.51
655.86	44546.76
656.06	45084.64
656.26	44307.89
656.45	44652.19
656.65	44614.92
656.85	44401.03
657.04	44197.54
657.24	44168.62
657.44	43988.73
657.64	44380.71
657.83	43643.61
658.03	44221.38
658.23	44140.28
658.43	44033.70
658.62	44228.59
658.82	43901.73
659.02	43923.52
659.21	44035.67
659.41	43937.20
659.61	44303.05
659.81	43876.67
660.00	43670.97
660.20	43840.21
660.40	43572.34
660.59	43749.69
660.79	43302.17
660.99	43799.50
661.19	43660.48
661.38	43715.45
661.58	43085.49
661.78	43592.00
661.97	43434.96
662.17	44083.35
662.37	43478.87
662.56	43540.72
662.76	43552.92
662.96	43495.09
663.15	43428.73
663.35	43377.86
663.55	43119.16
663.74	42689.25
663.94	43177.16
664.14	42766.26
664.33	43077.30
664.53	42834.17
664.73	43230.08
664.93	42511.00
665.12	42834.00
665.32	42566.05
665.52	42589.80
665.71	42416.79
665.91	42547.94
666.10	42287.93
666.30	42535.98
666.50	42239.19
666.69	42272.61
666.89	42617.16
667.09	42771.34
667.28	42318.24
667.48	42286.54
667.68	42264.42
667.87	42188.24
668.07	41929.21
668.27	42442.76
668.46	42349.70
668.66	42077.98
668.86	42352.73
669.05	41906.19
669.25	42119.10
669.44	41799.53
669.64	41704.18
669.84	41686.98
670.03	42150.06
670.23	41727.20
670.43	41601.70
670.62	41578.60
670.82	41429.83
671.01	41702.62
671.21	41307.12
671.41	41498.07
671.60	41596.78
671.80	41771.85
672.00	41478.25
672.19	41779.30
672.39	41524.61
672.58	41444.42
672.78	41190.14
672.98	41573.93
673.17	41417.22
673.37	40747.04
673.56	41102.08
673.76	41268.78
673.96	41423.04
674.15	41227.00
674.35	41289.43
674.54	41124.44
674.74	41130.50
674.94	41127.14
675.13	41271.65
675.33	40783.41
675.52	41072.75
675.72	40826.75
675.91	40733.12
676.11	40827.57
676.31	40396.10
676.50	40595.98
676.70	40504.07
676.89	40643.91
677.09	40729.51
677.28	40591.89
677.48	40069.90
677.68	40292.15
677.87	40037.79
678.07	39898.85
678.26	40076.13
678.46	39975.61
678.65	40120.53
678.85	40282.81
679.04	39856.91
679.24	40017.23
679.44	39866.99
679.63	39923.51
679.83	39722.07
680.02	39860.93
680.22	39685.05
680.41	39839.30
680.61	39826.85
680.80	39730.59
681.00	39874.03
681.19	39918.76
681.39	39660.96
681.59	39592.31
681.78	39299.46
681.98	39662.03
682.17	39127.34
682.37	39369.82
682.56	39036.50
682.76	39286.18
682.95	39107.03
683.15	39235.72
683.34	39126.61
683.54	39308.30
683.73	39562.50
683.93	39103.51
684.12	39423.48
684.32	39458.79
684.51	38716.19
684.71	39009.79
684.90	38905.18
685.10	38830.14
685.29	38695.47
685.49	38957.44
685.68	38939.26
685.88	38906.90
686.07	38714.31
686.27	38931.80
686.46	38707.92
686.66	38498.62
686.85	38646.48
687.05	38354.77
687.24	38295.38
687.44	38592.09
687.63	38544.90
687.83	38070.51
688.02	38266.13
688.22	38307.83
688.41	38077.80
688.61	37995.39
688.80	38218.21
689.00	37958.04
689.19	37754.88
689.39	38149.15
689.58	38081.00
689.77	37975.57
689.97	38111.72
690.16	37739.39
690.36	37467.51
690.55	37428.43
690.75	37867.52
690.94	37445.47
691.14	37548.69
691.33	37143.19
691.53	37539.35
691.72	37177.51
691.91	37202.01
692.11	37242.97
692.30	37377.15
692.50	37368.38
692.69	37004.75
692.89	37220.85
693.08	37094.12
693.28	37148.35
693.47	37121.32
693.66	37175.79
693.86	37035.88
694.05	36937.98
694.25	36917.91
694.44	37003.03
694.64	36861.80
694.83	36694.77
695.02	36667.65
695.22	36859.26
695.41	36654.71
695.61	36544.45
695.80	36573.94
695.99	36504.55
696.19	36482.52
696.38	36465.64
696.58	36219.15
696.77	36687.72
696.96	36519.54
697.16	36308.85
697.35	36221.03
697.55	36256.99
697.74	36071.53
697.93	36417.55
698.13	36009.60
698.32	36075.05
698.52	36006.40
698.71	35656.86
698.90	36247.24
699.10	35954.79
699.29	35933.17
699.49	36191.46
699.68	35844.78
699.87	35745.90
700.07	35948.16
700.26	35730.75
700.45	35644.98
700.65	35648.42
700.84	36003.95
701.04	35744.02
701.23	35926.61
701.42	35633.43
701.62	35429.45
701.81	35468.44
702.00	35368.99
702.20	35000.69
702.39	35078.10
702.58	35043.78
702.78	34920.90
702.97	34899.52
703.17	34924.42
703.36	34936.05
703.55	34703.49
703.75	34644.67
703.94	34800.15
704.13	34497.13
704.33	34585.28
704.52	34719.62
704.71	34635.58
704.91	34479.36
705.10	34329.28
705.29	34417.59
705.49	34547.10
705.68	34504.59
705.87	34404.07
706.07	34198.54
706.26	34510.24
706.45	34061.65
706.65	34041.75
706.84	34343.78
707.03	34556.28
707.23	33968.92
707.42	33759.78
707.61	34076.97
707.80	33687.69
708.00	33869.72
708.19	33773.05
708.38	34025.85
708.58	33467.50
708.77	33942.95
708.96	33378.94
709.16	33355.76
709.35	33993.91
709.54	33529.75
709.74	33457.83
709.93	33201.51
710.12	33659.51
710.31	33769.45
710.51	33375.26
710.70	33440.54
710.89	33459.71
711.09	32977.54
711.28	32946.57
711.47	33263.35
711.66	33097.55
711.86	32978.77
712.05	33100.66
712.24	33179.55
712.43	32847.62
712.63	32553.36
712.82	32873.34
713.01	32701.80
713.21	32452.19
713.40	32524.37
713.59	32695.25
713.78	32234.45
713.98	32433.11
714.17	32406.98
714.36	32510.28
714.55	32271.40
714.75	32542.96
714.94	32495.78
715.13	32715.48
715.32	32137.63
715.52	32316.13
715.71	32089.13
715.90	32153.19
716.09	31970.35
716.29	32252.07
716.48	31958.55
716.67	31625.47
716.86	31799.30
717.06	31733.03
717.25	31851.16
717.44	31883.02
717.63	31879.83
717.82	31498.74
718.02	31567.06
718.21	31710.09
718.40	31761.62
718.59	31614.33
718.79	31478.92
718.98	31629.48
719.17	31777.02
719.36	31796.35
719.55	31385.04
719.75	31260.11
719.94	31135.35
720.13	31271.66
720.32	31151.98
720.51	30949.15
720.71	30945.46
720.90	30692.66
721.09	31053.19
721.28	30837.41
721.47	31163.61
721.67	30846.67
721.86	30764.59
722.05	30591.25
722.24	30246.29
722.43	30630.90
722.63	30274.30
722.82	30417.82
723.01	30473.45
723.20	30166.99
723.39	30233.59
723.58	30425.52
723.78	30047.14
723.97	30448.22
724.16	30190.91
724.35	30368.10
724.54	30075.16
724.73	30249.07
724.93	30064.18
725.12	30229.08
725.31	29665.40
725.50	29919.10
725.69	29997.91
725.88	29742.32
726.08	29445.94
726.27	29818.18
726.46	29335.02
726.65	29937.53
726.84	29503.78
727.03	29581.68
727.23	29804.33
727.42	29459.13
727.61	29545.55
727.80	29408.26
727.99	29648.77
728.18	29554.97
728.37	29327.90
728.56	29096.88
728.76	28871.61
728.95	29017.42
729.14	28898.81
729.33	28932.47
729.52	29047.65
729.71	29140.88
729.90	29128.01
730.09	28875.79
730.29	29106.06
730.48	28675.00
730.67	29042.82
730.86	28642.65
731.05	28890.12
731.24	28629.37
731.43	28631.59
731.62	28473.73
731.81	28468.81
732.01	28794.19
732.20	28357.73
732.39	28462.42
732.58	28365.76
732.77	27902.92
732.96	28211.18
733.15	28300.31
733.34	28056.35
733.53	28153.43
733.72	28265.49
733.92	28206.35
734.11	28187.01
734.30	28096.66
734.49	28215.36
734.68	27858.44
734.87	27784.46
735.06	27864.74
735.25	27915.45
735.44	27771.03
735.63	27779.06
735.82	27909.96
736.01	27788.15
736.20	27665.52
736.40	27900.87
736.59	27784.71
736.78	27838.45
736.97	27423.45
737.16	27545.75
737.35	27546.08
737.54	27604.24
737.73	27402.23
737.92	27644.22
738.11	27667.16
738.30	27543.54
738.49	27501.35
738.68	27330.88
738.87	27451.87
739.06	27205.95
739.25	27236.51
739.44	27073.49
739.63	26973.71
739.82	26792.02
740.01	26980.51
740.20	26703.63
740.39	26922.76
740.59	26931.36
740.78	27017.95
740.97	26852.39
741.16	26765.97
741.35	26840.76
741.54	26788.50
741.73	26785.38
741.92	26598.20
742.11	26730.25
742.30	26695.68
742.49	26436.74
742.68	26618.02
742.87	26503.75
743.06	26292.40
743.25	26419.45
743.44	26347.69
743.63	26502.27
743.82	26309.11
744.01	26287.24
744.20	26199.83
744.39	26314.19
744.58	26204.99
744.77	25968.41
744.96	25809.73
745.15	26029.76
745.34	25788.43
745.53	25911.47
745.72	25712.00
745.91	25737.31
746.10	25620.01
746.29	25830.70
746.48	25855.61
746.67	25771.88
746.86	25761.64
747.04	25693.73
747.23	25666.29
747.42	25829.15
747.61	25513.02
747.80	25864.04
747.99	25379.66
748.18	25611.73
748.37	25430.69
748.56	25135.95
748.75	25354.51
748.94	25309.70
749.13	25307.81
749.32	25122.76
749.51	25230.57
749.70	25234.91
749.89	25038.71
750.08	25156.27
750.27	24926.24
750.46	25012.50
750.65	25261.28
750.84	25046.33
751.02	25027.73
751.21	24972.77
751.40	25053.29
751.59	25027.00
751.78	24936.40
751.97	24987.84
752.16	24842.60
752.35	25032.65
752.54	24654.59
752.73	24890.44
752.92	24757.65
753.11	24688.43
753.30	24873.32
753.49	24878.97
753.67	24702.76
753.86	24534.34
754.05	24639.03
754.24	24466.59
754.43	24452.91
754.62	24468.15
754.81	24241.07
755.00	24277.77
755.19	24280.06
755.38	23999.74
755.56	24199.21
755.75	24449.88
755.94	24132.77
756.13	24170.21
756.32	24165.95
756.51	24065.68
756.70	24102.46
756.89	24038.57
757.08	23979.67
757.26	24063.06
757.45	24004.90
757.64	23849.42
757.83	24172.50
758.02	23939.44
758.21	23938.87
758.40	23992.94
758.59	23948.62
758.77	23764.63
758.96	23810.91
759.15	23820.99
759.34	23637.49
759.53	23735.96
759.72	23714.58
759.91	23545.33
760.09	23674.85
760.28	23657.32
760.47	23348.15
760.66	23600.38
760.85	23282.21
761.04	23428.35
761.23	23321.12
761.41	23302.53
761.60	23460.47
761.79	23327.35
761.98	23266.89
762.17	23570.56
762.36	23376.83
762.54	23594.24
762.73	23375.35
762.92	23212.09
763.11	23412.21
763.30	23427.62
763.49	23317.35
763.67	23148.03
763.86	23161.63
764.05	23223.39
764.24	23093.22
764.43	23260.42
764.61	23041.20
764.80	23094.45
764.99	23348.40
765.18	22988.29
765.37	23156.55
765.55	23115.83
765.74	22995.41
765.93	22803.89
766.12	22971.08
766.31	22935.45
766.49	22958.55
766.68	22922.18
766.87	22916.36
767.06	22852.46
767.25	22918.90
767.43	22924.47
767.62	22807.74
767.81	22904.89
768.00	22685.02
768.19	22696.82
768.37	22779.72
768.56	22701.98
768.75	22694.93
768.94	22774.97
769.12	22527.49
769.31	22448.36
769.50	22438.36
769.69	22518.40
769.88	22261.67
770.06	22678.96
770.25	22445.33
770.44	22388.23
770.63	22549.28
770.81	22379.79
771.00	22333.43
771.19	22428.62
771.38	22376.11
771.56	22456.63
771.75	22158.69
771.94	22348.50
772.13	22257.57
772.31	22165.74
772.50	22364.80
772.69	22289.68
772.88	22489.56
773.06	22246.02
773.25	22346.78
773.44	22324.66
773.62	22164.67
773.81	22170.24
774.00	22076.04
774.19	22062.28
774.37	22025.33
774.56	22219.23
774.75	21787.36
774.94	22014.35
775.12	21825.20
775.31	21933.83
775.50	22041.14
775.68	21890.33
775.87	21949.39
776.06	21806.69
776.25	21957.01
776.43	21771.55
776.62	21940.87
776.81	21669.64
776.99	21860.59
777.18	21799.23
777.37	21492.29
777.55	21678.73
777.74	21655.47
777.93	21661.69
778.12	21670.54
778.30	21662.59
778.49	21672.51
778.68	21795.96
778.86	21690.61
779.05	21789.24
779.24	21826.76
779.42	21734.03
779.61	21602.71
779.80	21603.86
779.98	21619.67
780.17	21572.48
780.36	21328.69
780.54	21477.70
780.73	21071.63
780.92	21389.64
781.10	21298.96
781.29	21228.18
781.48	21245.05
781.66	21293.14
781.85	21274.87
782.04	21168.79
782.22	21247.59
782.41	21115.95
782.60	21297.40
782.78	21268.16
782.97	21333.61
783.16	21010.28
783.34	21005.61
783.53	21067.21
783.71	20954.90
783.90	20983.73
784.09	21016.09
784.27	21048.29
784.46	21090.72
784.65	21143.48
784.83	21097.85
785.02	21058.03
785.20	21269.22
785.39	20937.37
785.58	21189.35
785.76	21107.92
785.95	21005.61
786.14	21055.17
786.32	21080.32
786.51	20947.28
786.69	21028.38
786.88	20894.93
787.07	20866.10
787.25	20888.71
787.44	20880.19
787.62	20790.16
787.81	20944.00
788.00	21024.20
788.18	20992.66
788.37	21057.05
788.55	21489.42
788.74	21262.58
788.93	21387.59
789.11	21557.82
789.30	21496.22
789.48	21439.04
789.67	21507.03
789.86	21412.82
790.04	21487.04
790.23	21346.39
790.41	21206.39
790.60	21305.43
790.78	21264.71
790.97	21013.72
791.16	21147.41
791.34	21370.72
791.53	21076.55
791.71	21350.07
791.90	21076.79
792.08	21153.71
792.27	21097.52
792.46	21038.21
792.64	21079.41
792.83	21012.41
793.01	21059.75
793.20	21119.88
793.38	21053.45
793.57	21188.78
793.75	21118.65
793.94	21190.91
794.12	21392.75
794.31	21241.61
794.50	21404.06
794.68	21416.59
794.87	21347.78
795.05	21553.31
795.24	21316.65
795.42	21230.88
795.61	21528.66
795.79	21541.19
795.98	21200.41
796.16	21441.91
796.35	21415.94
796.53	21270.12
796.72	21455.75
796.90	21504.57
797.09	21460.34
797.27	21420.77
797.46	21373.67
797.64	21489.34
797.83	21393.00
798.01	21443.54
798.20	21554.79
798.38	21458.86
798.57	21626.55
798.75	21573.38
798.94	21287.41
799.12	21777.77
799.31	21504.82
799.49	21610.41
799.68	21466.89
799.86	21618.11
800.05	21488.76
800.23	21610.90
800.42	21477.87
800.60	21739.68
800.79	21490.32
800.97	21692.58
801.16	21821.84
801.34	21534.88
801.53	21547.42
801.71	21642.77
801.90	21416.43
802.08	21622.37
802.27	21445.10
802.45	21235.47
802.64	21380.96
802.82	21369.90
803.00	21162.15
803.19	21223.35
803.37	21366.46
803.56	21189.19
803.74	21262.91
803.93	21303.54
804.11	21197.05
804.30	21136.18
804.48	21322.14
804.67	21320.26
804.85	21262.50
805.03	21420.69
805.22	21280.61
805.40	21146.01
805.59	21351.30
805.77	21311.49
805.96	21197.13
806.14	21115.46
806.32	21200.16
806.51	21265.21
806.69	21009.46
806.88	20948.10
807.06	20966.37
807.25	21004.30
807.43	21062.46
807.61	21146.51
807.80	21131.19
807.98	21329.84
808.17	21111.28
808.35	21067.13
808.53	21182.47
808.72	21044.27
808.90	20990.53
809.09	21073.03
809.27	21110.95
809.45	20912.22
809.64	21061.23
809.82	20877.40
810.01	20916.64
810.19	20894.44
810.37	20780.90
810.56	20716.19
810.74	20819.16
810.93	20680.47
811.11	20771.81
811.29	20649.67
811.48	20905.66
811.66	20832.68
811.84	20719.46
812.03	20682.85
812.21	20667.94
812.40	20720.20
812.58	20752.23
812.76	20611.90
812.95	20755.02
813.13	20410.55
813.31	20518.35
813.50	20574.06
813.68	20477.56
813.86	20587.25
814.05	20718.56
814.23	20480.34
814.42	20680.39
814.60	20507.46
814.78	20651.80
814.97	20670.72
815.15	20671.95
815.33	20703.24
815.52	20469.12
815.70	20456.83
815.88	20426.77
816.07	20140.05
816.25	20225.82
816.43	20191.74
816.62	20046.09
816.80	20073.86
816.98	20121.78
817.17	20090.16
817.35	20121.05
817.53	20096.88
817.72	20208.86
817.90	20028.89
818.08	20066.49
818.26	20170.69
818.45	20007.43
818.63	20128.50
818.81	20171.43
819.00	19907.24
819.18	20072.22
819.36	20068.95
819.55	20056.58
819.73	19907.08
819.91	20059.20
820.09	19949.10
820.28	19992.93
820.46	19688.43
820.64	20036.92
820.83	19678.44
821.01	19838.26
821.19	19768.63
821.38	19871.69
821.56	19809.76
821.74	19926.65
821.92	19820.16
822.11	20043.80
822.29	19677.54
822.47	19704.24
822.65	19671.56
822.84	19735.46
823.02	19524.76
823.20	19837.85
823.39	19666.81
823.57	19773.47
823.75	19711.13
823.93	19585.22
824.12	19624.95
824.30	19473.73
824.48	19562.69
824.66	19639.69
824.85	19251.15
825.03	19521.16
825.21	19472.50
825.39	19423.84
825.58	19514.68
825.76	19493.80
825.94	19503.46
826.12	19443.99
826.31	19357.97
826.49	19316.85
826.67	19289.08
826.85	19246.89
827.03	19309.64
827.22	19355.76
827.40	19261.39
827.58	19287.77
827.76	19424.82
827.95	19234.69
828.13	19355.19
828.31	19308.25
828.49	19350.27
828.67	19252.87
828.86	19233.46
829.04	19311.94
829.22	19246.56
829.40	19185.04
829.58	19186.93
829.77	19185.21
829.95	19123.28
830.13	19052.42
830.31	18976.31
830.49	18960.09
830.68	18903.16
830.86	18767.09
831.04	18791.67
831.22	18817.23
831.40	18803.22
831.59	18908.08
831.77	18809.12
831.95	18908.65
832.13	18695.09
832.31	18825.67
832.50	18735.56
832.68	18606.45
832.86	18629.06
833.04	18723.02
833.22	18574.34
833.40	18865.97
833.59	18667.64
833.77	18902.67
833.95	18498.07
834.13	19015.96
834.31	18763.49
834.49	18801.83
834.67	18686.32
834.86	18723.84
835.04	18620.62
835.22	18631.19
835.40	18592.69
835.58	18606.29
835.76	18649.54
835.95	18670.84
836.13	18559.84
836.31	18494.96
836.49	18558.12
836.67	18491.03
836.85	18361.60
837.03	18417.38
837.21	18429.75
837.40	18334.07
837.58	18193.66
837.76	18326.04
837.94	18252.40
838.12	18425.33
838.30	18210.29
838.48	18244.94
838.66	18219.22
838.85	18199.40
839.03	18150.90
839.21	18131.00
839.39	18004.51
839.57	18104.78
839.75	17959.54
839.93	18052.27
840.11	18137.88
840.29	18081.35
840.47	18139.10
840.66	18112.24
840.84	18021.63
841.02	17981.17
841.20	17952.33
841.38	17974.28
841.56	17918.83
841.74	18101.75
841.92	17848.21
842.10	17760.64
842.28	17835.60
842.46	17664.22
842.65	17709.52
842.83	17861.65
843.01	17815.36
843.19	17633.09
843.37	17747.78
843.55	17686.83
843.73	17802.99
843.91	17798.08
844.09	17748.19
844.27	17963.23
844.45	17694.61
844.63	17743.36
844.81	17690.44
844.99	17788.49
845.17	17620.72
845.35	17709.03
845.54	17549.86
845.72	17603.85
845.90	17579.68
846.08	17574.93
846.26	17414.70
846.44	17535.69
846.62	17245.04
846.80	17394.63
846.98	17440.09
847.16	17386.03
847.34	17443.78
847.52	17462.05
847.70	17353.34
847.88	17392.50
848.06	17307.55
848.24	17414.29
848.42	17364.24
848.60	17270.36
848.78	17353.18
848.96	17313.36
849.14	17295.92
849.32	17496.78
849.50	17361.29
849.68	17506.86
849.86	17445.50
850.04	17378.57
850.22	17406.01
850.40	17199.74
850.58	17310.99
850.76	17461.72
850.94	17017.06
851.12	17194.50
851.30	17059.91
851.48	17172.30
851.66	17053.44
851.84	17053.68
852.02	17085.14
852.20	17277.65
852.38	17090.46
852.56	17177.87
852.74	17186.23
852.92	16972.34
853.10	17008.46
853.28	17017.72
853.46	16722.32
853.64	16912.70
853.82	16731.74
854.00	16809.97
854.18	16707.74
854.36	16674.56
854.54	16784.91
854.72	16629.18
854.90	16598.54
855.07	16660.47
855.25	16623.85
855.43	16685.78
855.61	16635.90
855.79	16527.11
855.97	16626.39
856.15	16590.27
856.33	16517.03
856.51	16633.77
856.69	16406.52
856.87	16558.73
857.05	16426.84
857.23	16438.39
857.41	16229.58
857.59	16253.25
857.77	16221.80
857.94	16177.31
858.12	16303.63
858.30	16247.44
858.48	16159.29
858.66	16155.28
858.84	16288.07
859.02	16162.16
859.20	16171.33
859.38	16363.52
859.56	16343.28
859.74	16278.48
859.92	16307.48
860.09	16223.76
860.27	16296.18
860.45	16175.02
860.63	16176.25
860.81	16246.54
860.99	16071.64
861.17	15923.61
861.35	15680.07
861.53	15654.10
861.70	15568.66
861.88	15874.87
862.06	15880.03
862.24	15626.74
862.42	15593.07
862.60	15804.34
862.78	15752.48
862.96	15807.78
863.14	15714.80
863.31	15657.54
863.49	15602.65
863.67	15558.01
863.85	15562.92
864.03	15687.03
864.21	15610.60
864.39	15666.88
864.56	15479.37
864.74	15610.60
864.92	15529.50
865.10	15467.90
865.28	15566.28
865.46	15672.78
865.64	15294.97
865.81	15579.47
865.99	15321.92
866.17	15477.48
866.35	15404.82
866.53	15424.32
866.71	15415.88
866.88	15419.98
867.06	15243.52
867.24	15308.07
867.42	15209.69
867.60	15343.05
867.78	15236.64
867.95	15402.69
868.13	15164.96
868.31	15346.09
868.49	15275.47
868.67	15243.93
868.84	15118.84
869.02	15184.79
869.20	15001.53
869.38	15158.98
869.56	15053.96
869.73	15000.22
869.91	15048.72
870.09	15021.28
870.27	14901.51
870.45	14927.23
870.62	14833.03
870.80	14999.90
870.98	14894.71
871.16	14931.82
871.34	14876.85
871.51	14917.49
871.69	14764.87
871.87	14808.29
872.05	14753.89
872.23	14749.47
872.40	14679.27
872.58	14792.07
872.76	14755.21
872.94	14728.75
873.11	14705.81
873.29	14689.51
873.47	14683.53
873.65	14608.57
873.83	14572.69
874.00	14561.47
874.18	14577.36
874.36	14544.10
874.54	14584.16
874.71	14518.71
874.89	14416.14
875.07	14476.03
875.25	14403.77
875.42	14426.38
875.60	14370.51
875.78	14435.80
875.96	14197.58
876.13	14263.04
876.31	14053.57
876.49	14076.59
876.66	13957.81
876.84	14201.43
877.02	14079.13
877.20	14082.16
877.37	14095.10
877.55	14064.88
877.73	14029.08
877.91	14032.35
878.08	14111.57
878.26	14158.26
878.44	14130.90
878.61	14187.84
878.79	14121.81
878.97	14154.58
879.15	14164.49
879.32	14119.11
879.50	14129.02
879.68	14217.08
879.85	13977.55
880.03	14073.64
880.21	13957.64
880.38	14041.12
880.56	13897.52
880.74	14047.84
880.92	13829.44
881.09	13951.91
881.27	13834.60
881.45	13895.55
881.62	13812.65
881.80	13782.83
881.98	13765.46
882.15	13970.34
882.33	13902.51
882.51	13963.79
882.68	13873.51
882.86	14065.20
883.04	13898.25
883.21	13874.17
883.39	13977.96
883.57	13820.35
883.74	13848.69
883.92	13854.10
884.10	13802.74
884.27	13821.33
884.45	13798.23
884.63	13913.65
884.80	13811.99
884.98	13848.04
885.16	13824.85
885.33	13812.40
885.51	13847.55
885.69	13839.03
885.86	13758.25
886.04	13871.88
886.21	13688.21
886.39	13854.18
886.57	13637.34
886.74	13873.43
886.92	13842.79
887.10	13851.97
887.27	13822.72
887.45	13830.59
887.62	13865.49
887.80	13863.93
887.98	13969.85
888.15	13902.92
888.33	13842.63
888.51	13975.99
888.68	13818.71
888.86	13873.27
889.03	13791.02
889.21	13840.25
889.39	13822.15
889.56	13775.87
889.74	13771.12
889.91	13745.07
890.09	13751.62
890.27	13783.24
890.44	13740.64
890.62	13776.69
890.79	13756.86
890.97	13767.92
891.14	13731.30
891.32	13785.04
891.50	13775.05
891.67	13866.14
891.85	13886.21
892.02	13847.30
892.20	13982.55
892.38	13886.62
892.55	13875.23
892.73	13932.41
892.90	13832.31
893.08	13905.13
893.25	13793.48
893.43	13929.05
893.60	13793.15
893.78	13877.77
893.96	13796.26
894.13	13881.30
894.31	13906.04
894.48	13852.30
894.66	13902.10
894.83	13909.23
895.01	13921.11
895.18	14014.00
895.36	13962.48
895.53	14082.65
895.71	13953.79
895.89	14061.84
896.06	13976.73
896.24	14064.71
896.41	13967.39
896.59	13993.52
896.76	13758.83
896.94	13859.26
897.11	13852.95
897.29	13841.24
897.46	13711.15
897.64	13738.84
897.81	13688.71
897.99	13624.89
898.16	13764.89
898.34	13758.75
898.51	13709.27
898.69	13643.32
898.86	13753.01
899.04	13778.57
899.21	13744.49
899.39	13836.24
899.56	13803.23
899.74	13943.96
899.91	13779.14
900.09	13724.67
900.26	13746.54
900.44	13665.93
900.61	13667.82
900.79	13751.37
900.96	13617.68
901.14	13642.26
901.31	13599.00
901.49	13541.74
901.66	13561.49
901.84	13566.81
902.01	13451.22
902.19	13500.62
902.36	13483.01
902.54	13493.66
902.71	13484.32
902.88	13589.34
903.06	13389.37
903.23	13593.27
903.41	13482.27
903.58	13443.60
903.76	13353.66
903.93	13496.03
904.11	13584.59
904.28	13455.32
904.45	13377.17
904.63	13373.48
904.80	13236.51
904.98	13340.80
905.15	13190.88
905.33	13290.91
905.50	13213.00
905.68	13220.13
905.85	13130.35
906.02	13125.43
906.20	13188.51
906.37	13055.39
906.55	13002.55
906.72	13123.22
906.90	12990.59
907.07	12894.99
907.24	12914.25
907.42	12903.19
907.59	12895.90
907.77	12870.91
907.94	12880.82
908.11	12885.08
908.29	12866.73
908.46	12867.39
908.64	12855.92
908.81	12922.03
908.98	12827.08
909.16	12959.87
909.33	12828.64
909.51	12836.26
909.68	12820.45
909.85	12824.63
910.03	12753.77
910.20	12727.31
910.37	12770.31
910.55	12759.91
910.72	12695.52
910.90	12636.05
911.07	12628.51
911.24	12559.37
911.42	12623.11
911.59	12475.98
911.76	12534.47
911.94	12406.27
912.11	12384.23
912.29	12350.40
912.46	12259.63
912.63	12294.12
912.81	12158.05
912.98	12265.94
913.15	12120.21
913.33	12221.95
913.50	12122.83
913.67	12114.23
913.85	12081.30
914.02	12071.47
914.19	12001.34
914.37	11987.25
914.54	11967.18
914.71	11990.04
914.89	11958.17
915.06	11968.00
915.23	11967.84
915.41	11907.87
915.58	11845.29
915.75	11791.47
915.93	11745.35
916.10	11734.62
916.27	11705.86
916.45	11733.22
916.62	11550.22
916.79	11625.01
916.97	11526.21
917.14	11484.52
917.31	11406.94
917.49	11469.36
917.66	11431.84
917.83	11422.67
918.00	11397.68
918.18	11386.87
918.35	11367.62
918.52	11429.30
918.70	11379.74
918.87	11395.88
919.04	11374.83
919.21	11344.93
919.39	11225.16
919.56	11301.10
919.73	11186.33
919.91	11183.47
920.08	11097.12
920.25	11036.09
920.42	11103.51
920.60	10959.83
920.77	10885.77
920.94	11006.44
921.11	10888.48
921.29	10945.33
921.46	10820.40
921.63	10955.81
921.81	10869.23
921.98	10875.62
922.15	10753.15
922.32	10869.31
922.50	10783.70
922.67	10763.55
922.84	10721.44
923.01	10700.96
923.19	10672.21
923.36	10693.67
923.53	10546.88
923.70	10603.97
923.87	10537.86
924.05	10514.11
924.22	10418.10
924.39	10460.86
924.56	10348.55
924.74	10377.55
924.91	10348.22
925.08	10335.61
925.25	10358.54
925.43	10350.93
925.60	10279.90
925.77	10371.08
925.94	10267.20
926.11	10310.38
926.29	10204.62
926.46	10228.78
926.63	10201.92
926.80	10199.87
926.97	10081.66
927.15	10166.85
927.32	10058.39
927.49	10054.63
927.66	10029.15
927.83	10084.85
928.01	9975.66
928.18	9982.78
928.35	9875.88
928.52	9972.71
928.69	9846.72
928.87	9864.33
929.04	9845.65
929.21	9866.38
929.38	9731.78
929.55	9826.56
929.72	9731.13
929.90	9752.26
930.07	9749.15
930.24	9658.79
930.41	9642.33
930.58	9611.69
930.75	9575.65
930.93	9538.29
931.10	9524.94
931.27	9457.68
931.44	9447.12
931.61	9397.47
931.78	9469.15
931.95	9376.58
932.13	9313.10
932.30	9417.71
932.47	9280.98
932.64	9356.35
932.81	9294.58
932.98	9320.06
933.15	9294.67
933.33	9215.94
933.50	9294.26
933.67	9221.92
933.84	9202.18
934.01	9207.91
934.18	9185.06
934.35	9159.83
934.52	9100.11
934.70	9113.30
934.87	9041.95
935.04	9025.97
935.21	9020.48
935.38	9014.01
935.55	8939.47
935.72	8991.98
935.89	8905.39
936.06	8954.37
936.24	8874.34
936.41	8927.18
936.58	8836.17
936.75	8835.67
936.92	8804.87
937.09	8822.49
937.26	8745.40
937.43	8736.80
937.60	8802.01
937.77	8777.59
937.94	8740.89
938.12	8754.74
938.29	8708.78
938.46	8765.47
938.63	8625.31
938.80	8709.68
938.97	8636.78
939.14	8648.41
939.31	8607.20
939.48	8587.54
939.65	8518.89
939.82	8492.52
939.99	8486.13
940.16	8463.52
940.33	8418.54
940.50	8400.60
940.67	8373.98
940.85	8434.11
941.02	8365.22
941.19	8428.05
941.36	8359.32
941.53	8409.53
941.70	8372.10
941.87	8322.54
942.04	8353.42
942.21	8354.40
942.38	8312.30
942.55	8256.02
942.72	8272.89
942.89	8234.47
943.06	8184.09
943.23	8186.71
943.40	8137.24
943.57	8178.44
943.74	8117.00
943.91	8142.07
944.08	8113.48
944.25	8126.18
944.42	8025.50
944.59	8030.00
944.76	8021.98
944.93	7985.60
945.10	7972.58
945.27	7948.33
945.44	7854.78
945.61	7905.73
945.78	7848.06
945.95	7855.52
946.12	7772.70
946.29	7861.99
946.46	7808.74
946.63	7770.48
946.80	7790.80
946.97	7735.92
947.14	7735.01
947.31	7777.28
947.48	7709.46
947.65	7715.35
947.82	7704.38
947.99	7718.38
948.16	7660.47
948.33	7719.78
948.50	7623.69
948.67	7676.03
948.84	7653.10
949.01	7603.62
949.18	7601.98
949.35	7638.60
949.52	7564.54
949.68	7607.06
949.85	7584.86
950.02	7562.25
950.19	7543.16
950.36	7518.09
950.53	7435.19
950.70	7444.86
950.87	7390.30
951.04	7441.25
951.21	7383.09
951.38	7318.46
951.55	7388.91
951.72	7351.31
951.89	7297.49
952.06	7382.52
952.23	7323.54
952.39	7322.06
952.56	7252.92
952.73	7289.05
952.90	7239.82
953.07	7306.09
953.24	7195.50
953.41	7244.73
953.58	7175.26
953.75	7219.17
953.92	7172.97
954.09	7159.13
954.25	7112.43
954.42	7128.41
954.59	7090.40
954.76	7082.04
954.93	7077.45
955.10	7080.65
955.27	7058.20
955.44	7038.30
955.61	6995.86
955.77	7067.95
955.94	7000.20
956.11	6993.57
956.28	6990.29
956.45	6943.02
956.62	6962.77
956.79	6947.45
956.96	6898.87
957.12	6884.94
957.29	6843.08
957.46	6856.19
957.63	6823.34
957.80	6813.10
957.97	6786.89
958.14	6851.19
958.30	6762.47
958.47	6763.29
958.64	6786.64
958.81	6813.43
958.98	6783.12
959.15	6779.10
959.32	6792.78
959.48	6819.98
959.65	6731.84
959.82	6741.09
959.99	6690.47
960.16	6714.22
960.33	6710.95
960.49	6649.75
960.66	6618.79
960.83	6614.61
961.00	6570.54
961.17	6586.02
961.33	6556.61
961.50	6545.31
961.67	6491.73
961.84	6535.97
962.01	6472.56
962.18	6519.59
962.34	6430.79
962.51	6475.02
962.68	6407.68
962.85	6486.33
963.02	6412.76
963.18	6440.94
963.35	6396.63
963.52	6412.03
963.69	6419.07
963.86	6409.73
964.02	6352.47
964.19	6404.33
964.36	6371.89
964.53	6337.07
964.69	6328.96
964.86	6371.15
965.03	6268.10
965.20	6328.71
965.37	6248.84
965.53	6266.95
965.70	6241.72
965.87	6231.07
966.04	6210.10
966.20	6192.07
966.37	6200.76
966.54	6135.71
966.71	6165.70
966.87	6142.76
967.04	6115.48
967.21	6139.40
967.38	6083.70
967.54	6104.42
967.71	6082.39
967.88	6102.62
968.05	6063.13
968.21	6030.69
968.38	6003.99
968.55	6033.73
968.72	5993.67
968.88	5989.00
969.05	6028.16
969.22	5987.11
969.39	5979.41
969.55	5994.57
969.72	5951.23
969.89	5965.49
970.05	6014.47
970.22	5979.90
970.39	5936.16
970.56	5986.13
970.72	5946.40
970.89	5973.27
971.06	5932.15
971.22	5920.02
971.39	5907.32
971.56	5931.33
971.73	5874.72
971.89	5924.61
972.06	5871.94
972.23	5896.76
972.39	5813.45
972.56	5871.85
972.73	5797.55
972.89	5813.61
973.06	5827.13
973.23	5775.76
973.39	5762.16
973.56	5781.83
973.73	5767.49
973.89	5757.41
974.06	5722.19
974.23	5729.23
974.39	5742.42
974.56	5737.51
974.73	5702.28
974.89	5668.29
975.06	5674.92
975.23	5723.83
975.39	5616.27
975.56	5668.53
975.73	5640.68
975.89	5651.49
976.06	5615.45
976.23	5584.81
976.39	5573.34
976.56	5584.73
976.73	5569.16
976.89	5583.91
977.06	5540.66
977.23	5552.70
977.39	5514.36
977.56	5538.20
977.72	5485.12
977.89	5518.46
978.06	5498.80
978.22	5484.87
978.39	5448.66
978.56	5455.22
978.72	5436.78
978.89	5447.84
979.05	5455.71
979.22	5449.40
979.39	5403.77
979.55	5426.46
979.72	5406.47
979.88	5392.06
980.05	5356.67
980.22	5412.13
980.38	5350.36
980.55	5353.47
980.71	5305.88
980.88	5346.92
981.05	5334.30
981.21	5318.17
981.38	5281.88
981.54	5313.25
981.71	5245.50
981.88	5277.62
982.04	5275.24
982.21	5260.99
982.37	5233.87
982.54	5257.71
982.70	5222.65
982.87	5245.09
983.04	5189.88
983.20	5277.94
983.37	5229.86
983.53	5219.29
983.70	5207.57
983.86	5204.05
984.03	5149.00
984.20	5172.43
984.36	5146.05
984.53	5128.11
984.69	5106.65
984.86	5096.33
985.02	5111.89
985.19	5105.91
985.35	5083.14
985.52	5087.65
985.68	5091.74
985.85	5075.60
986.02	5088.96
986.18	5086.99
986.35	5063.23
986.51	5105.59
986.68	5046.36
986.84	5068.23
987.01	5048.82
987.17	5048.73
987.34	5009.74
987.50	5017.28
987.67	5000.16
987.83	5034.32
988.00	5006.22
988.16	5004.66
988.33	4983.69
988.49	5004.01
988.66	4945.93
988.82	4964.19
988.99	4951.58
989.15	4970.01
989.32	4914.72
989.48	4938.39
989.65	4867.28
989.81	4874.98
989.98	4876.21
990.14	4858.19
990.31	4864.66
990.47	4855.41
990.64	4822.97
990.80	4828.86
990.97	4813.38
991.13	4822.97
991.30	4819.85
991.46	4794.21
991.63	4777.26
991.79	4793.80
991.95	4755.55
992.12	4816.41
992.28	4754.65
992.45	4761.12
992.61	4760.13
992.78	4782.58
992.94	4751.62
993.11	4772.83
993.27	4757.68
993.44	4763.49
993.60	4740.56
993.76	4748.26
993.93	4734.90
994.09	4744.57
994.26	4726.22
994.42	4713.69
994.59	4689.11
994.75	4719.67
994.91	4691.00
995.08	4671.33
995.24	4654.79
995.41	4648.56
995.57	4646.10
995.74	4641.52
995.90	4617.10
996.06	4627.75
996.23	4615.06
996.39	4599.98
996.56	4567.13
996.72	4618.82
996.88	4594.66
997.05	4606.21
997.21	4563.37
997.38	4589.33
997.54	4559.19
997.70	4583.93
997.87	4572.95
998.03	4594.58
998.20	4543.79
998.36	4549.77
998.52	4494.96
998.69	4573.77
998.85	4519.62
999.02	4529.12
999.18	4495.05
999.34	4501.93
999.51	4522.08
999.67	4513.23
999.83	4476.29
1000.00	4504.96
1000.16	4472.60
1000.33	4463.59
1000.49	4454.82
1000.65	4468.09
1000.82	4494.80
1000.98	4463.18
1001.14	4429.02
1001.31	4468.26
1001.47	4479.81
1001.63	4460.97
1001.80	4391.99
1001.96	4417.80
1002.12	4410.34
1002.29	4417.55
1002.45	4393.14
1002.61	4406.00
1002.78	4378.15
1002.94	4393.63
1003.10	4361.68
1003.27	4387.24
1003.43	4349.64
1003.59	4356.36
1003.76	4344.32
1003.92	4367.33
1004.08	4344.81
1004.25	4349.48
1004.41	4340.63
1004.57	4323.34
1004.74	4297.54
1004.90	4330.39
1005.06	4298.85
1005.23	4285.01
1005.39	4301.47
1005.55	4297.05
1005.71	4275.34
1005.88	4260.10
1006.04	4275.59
1006.20	4247.57
1006.37	4228.40
1006.53	4232.74
1006.69	4242.33
1006.85	4261.50
1007.02	4219.39
1007.18	4221.85
1007.34	4237.00
1007.51	4239.95
1007.67	4197.60
1007.83	4220.37
1007.99	4197.52
1008.16	4189.82
1008.32	4169.34
1008.48	4195.96
1008.64	4195.30
1008.81	4221.36
1008.97	4149.59
1009.13	4157.05
1009.29	4139.68
1009.46	4162.05
1009.62	4161.14
1009.78	4125.35
1009.95	4149.59
1010.11	4147.46
1010.27	4114.78
1010.43	4133.62
1010.59	4131.90
1010.76	4144.60
1010.92	4107.32
1011.08	4136.16
1011.24	4086.60
1011.41	4129.77
1011.57	4079.23
1011.73	4111.26
1011.89	4067.84
1012.06	4086.03
1012.22	4065.38
1012.38	4082.09
1012.54	4073.82
1012.70	4073.08
1012.87	4047.85
1013.03	4092.17
1013.19	4072.18
1013.35	4063.09
1013.51	4012.71
1013.68	4080.62
1013.84	4025.08
1014.00	4042.94
1014.16	3997.80
1014.32	3999.76
1014.49	3995.75
1014.65	4022.87
1014.81	3971.09
1014.97	3994.85
1015.13	3977.07
1015.30	4003.29
1015.46	3982.89
1015.62	4000.99
1015.78	3956.68
1015.94	3958.15
1016.10	3966.92
1016.27	3955.36
1016.43	3979.94
1016.59	3987.48
1016.75	3944.47
1016.91	3959.79
1017.07	3929.97
1017.24	3952.17
1017.40	3935.38
1017.56	3929.56
1017.72	3919.73
1017.88	3929.07
1018.04	3911.46
1018.21	3906.38
1018.37	3909.65
1018.53	3925.30
1018.69	3918.26
1018.85	3904.33
1019.01	3894.42
1019.17	3901.30
1019.34	3887.95
1019.50	3895.07
1019.66	3872.30
1019.82	3869.35
1019.98	3858.21
1020.14	3866.16
1020.30	3848.62
1020.46	3864.27
1020.63	3841.66
1020.79	3856.57
1020.95	3839.86
1021.11	3846.82
1021.27	3817.09
1021.43	3823.39
1021.59	3833.22
1021.75	3788.17
1021.91	3783.42
1022.07	3800.62
1022.24	3797.84
1022.40	3794.56
1022.56	3762.61
1022.72	3819.30
1022.88	3772.03
1023.04	3796.77
1023.20	3767.28
1023.36	3801.77
1023.52	3792.51
1023.68	3795.87
1023.84	3773.10
1024.01	3784.65
1024.17	3758.84
1024.33	3778.67
1024.49	3755.48
1024.65	3767.03
1024.81	3753.35
1024.97	3755.57
1025.13	3745.33
1025.29	3743.93
1025.45	3713.87
1025.61	3762.86
1025.77	3746.14
1025.93	3758.27
1026.09	3731.07
1026.25	3758.27
1026.41	3725.26
1026.57	3748.03
1026.73	3728.37
1026.90	3742.79
1027.06	3736.48
1027.22	3744.75
1027.38	3720.91
1027.54	3741.39
1027.70	3719.28
1027.86	3717.96
1028.02	3713.05
1028.18	3718.62
1028.34	3691.83
1028.50	3705.76
1028.66	3679.05
1028.82	3723.45
1028.98	3682.00
1029.14	3661.28
1029.30	3678.89
1029.46	3689.46
1029.62	3654.89
1029.78	3665.21
1029.94	3656.12
1030.10	3674.47
1030.26	3651.86
1030.42	3647.68
1030.58	3643.34
1030.74	3652.76
1030.90	3628.26
1031.06	3634.73
1031.22	3624.99
1031.38	3628.18
1031.54	3617.04
1031.70	3623.27
1031.86	3625.81
1032.02	3649.56
1032.18	3602.38
1032.34	3614.75
1032.50	3620.81
1032.66	3619.58
1032.82	3583.95
1032.98	3622.20
1033.14	3599.02
1033.30	3623.68
1033.45	3591.73
1033.61	3619.25
1033.77	3590.74
1033.93	3614.66
1034.09	3590.50
1034.25	3607.62
1034.41	3575.84
1034.57	3588.78
1034.73	3565.51
1034.89	3595.66
1035.05	3557.24
1035.21	3592.06
1035.37	3567.64
1035.53	3572.89
1035.69	3566.66
1035.85	3565.35
1036.01	3546.02
1036.16	3575.10
1036.32	3551.34
1036.48	3552.41
1036.64	3529.31
1036.80	3548.47
1036.96	3529.39
1037.12	3519.80
1037.28	3531.52
1037.44	3523.65
1037.60	3541.27
1037.76	3515.46
1037.91	3533.81
1038.07	3535.70
1038.23	3523.65
1038.39	3529.22
1038.55	3515.54
1038.71	3526.44
1038.87	3503.34
1039.03	3521.44
1039.19	3499.41
1039.35	3525.95
1039.50	3509.56
1039.66	3511.28
1039.82	3493.26
1039.98	3487.45
1040.14	3481.96
1040.30	3490.64
1040.46	3465.74
1040.62	3486.63
1040.77	3500.31
1040.93	3506.61
1041.09	3477.61
1041.25	3510.22
1041.41	3489.90
1041.57	3493.83
1041.73	3493.83
1041.88	3493.83

