SpectraSuite Data File
++++++++++++++++++++++++++++++++++++
Date: Tue Sep 20 12:16:21 EDT 2022
User: Laboratoire
Dark Spectrum Present: No
Reference Spectrum Present: No
Number of Sampled Component Spectra: 1
Spectrometers: FLMT00174
Integration Time (usec): 15000 (FLMT00174)
Spectra Averaged: 25 (FLMT00174)
Boxcar Smoothing: 0 (FLMT00174)
Correct for Electrical Dark: No (FLMT00174)
Strobe/Lamp Enabled: No (FLMT00174)
Correct for Detector Non-linearity: No (FLMT00174)
Correct for Stray Light: No (FLMT00174)
Number of Pixels in Processed Spectrum: 3648
>>>>>Begin Processed Spectral Data<<<<<
345.74	3173.29
345.96	3173.29
346.18	3173.29
346.39	3181.48
346.61	3235.38
346.83	3222.93
347.05	3216.79
347.27	3217.52
347.49	3221.54
347.71	3239.80
347.93	3226.86
348.15	3237.43
348.36	3232.68
348.58	3233.09
348.80	3209.00
349.02	3227.93
349.24	3218.34
349.46	3305.67
349.68	3306.81
349.90	3329.51
350.11	3294.12
350.33	3314.02
350.55	3296.08
350.77	3310.75
350.99	3310.75
351.21	3320.82
351.43	3303.37
351.65	3333.60
351.86	3306.32
352.08	3330.98
352.30	3287.81
352.52	3309.76
352.74	3291.82
352.96	3307.22
353.18	3326.80
353.39	3314.10
353.61	3290.92
353.83	3316.07
354.05	3324.26
354.27	3332.29
354.49	3311.89
354.70	3325.49
354.92	3305.67
355.14	3310.34
355.36	3288.55
355.58	3315.83
355.80	3302.47
356.02	3309.52
356.23	3311.65
356.45	3315.66
356.67	3320.74
356.89	3338.60
357.11	3299.44
357.33	3326.72
357.54	3289.86
357.76	3308.62
357.98	3303.95
358.20	3320.82
358.42	3317.30
358.63	3319.27
358.85	3323.12
359.07	3329.59
359.29	3304.19
359.51	3308.29
359.73	3292.23
359.94	3333.85
360.16	3319.27
360.38	3319.51
360.60	3292.31
360.82	3327.54
361.03	3329.42
361.25	3326.47
361.47	3334.18
361.69	3349.08
361.91	3307.39
362.12	3309.60
362.34	3317.30
362.56	3327.38
362.78	3325.57
363.00	3328.19
363.21	3314.92
363.43	3344.99
363.65	3311.81
363.87	3322.30
364.09	3317.05
364.30	3323.53
364.52	3315.09
364.74	3332.13
364.96	3324.43
365.17	3314.84
365.39	3313.04
365.61	3299.11
365.83	3340.89
366.05	3321.89
366.26	3302.39
366.48	3328.36
366.70	3340.89
366.92	3338.19
367.13	3323.28
367.35	3341.63
367.57	3316.15
367.79	3327.62
368.01	3317.87
368.22	3336.63
368.44	3328.19
368.66	3337.53
368.88	3337.94
369.09	3333.19
369.31	3326.39
369.53	3332.29
369.75	3337.94
369.96	3330.24
370.18	3330.41
370.40	3333.68
370.62	3321.31
370.83	3310.83
371.05	3358.50
371.27	3346.63
371.49	3327.05
371.70	3335.65
371.92	3345.23
372.14	3336.63
372.36	3323.03
372.57	3366.12
372.79	3342.78
373.01	3336.71
373.22	3326.64
373.44	3352.28
373.66	3331.14
373.88	3352.03
374.09	3338.35
374.31	3353.18
374.53	3319.84
374.75	3340.24
374.96	3344.17
375.18	3378.33
375.40	3334.50
375.61	3341.55
375.83	3328.28
376.05	3357.60
376.27	3344.91
376.48	3338.93
376.70	3328.93
376.92	3347.77
377.13	3326.07
377.35	3354.00
377.57	3327.95
377.79	3338.93
378.00	3322.30
378.22	3352.12
378.44	3352.93
378.65	3363.09
378.87	3351.79
379.09	3369.40
379.30	3342.53
379.52	3362.68
379.74	3354.74
379.96	3374.23
380.17	3337.04
380.39	3340.48
380.61	3351.54
380.82	3347.86
381.04	3348.10
381.26	3383.41
381.47	3373.09
381.69	3393.48
381.91	3363.99
382.12	3372.43
382.34	3390.13
382.56	3367.43
382.77	3378.08
382.99	3373.00
383.21	3372.02
383.42	3393.24
383.64	3373.74
383.86	3376.94
384.07	3390.37
384.29	3380.87
384.51	3377.76
384.72	3392.83
384.94	3377.92
385.16	3379.64
385.37	3393.48
385.59	3390.78
385.81	3404.46
386.02	3393.98
386.24	3399.46
386.46	3387.34
386.67	3391.52
386.89	3427.64
387.11	3420.52
387.32	3399.14
387.54	3410.85
387.76	3411.83
387.97	3419.12
388.19	3429.53
388.40	3411.18
388.62	3429.28
388.84	3426.58
389.05	3428.71
389.27	3433.05
389.49	3441.41
389.70	3423.55
389.92	3443.13
390.14	3442.06
390.35	3450.17
390.57	3442.96
390.78	3442.39
391.00	3440.42
391.22	3441.32
391.43	3440.75
391.65	3458.94
391.86	3485.56
392.08	3475.89
392.30	3453.61
392.51	3480.40
392.73	3496.29
392.95	3462.71
393.16	3478.27
393.38	3483.19
393.59	3473.85
393.81	3505.63
394.03	3486.95
394.24	3502.11
394.46	3493.75
394.67	3499.49
394.89	3493.02
395.11	3529.63
395.32	3521.36
395.54	3516.77
395.75	3521.44
395.97	3501.04
396.19	3500.06
396.40	3532.99
396.62	3522.18
396.83	3530.29
397.05	3546.18
397.26	3539.14
397.48	3543.89
397.70	3533.07
397.91	3558.39
398.13	3540.20
398.34	3561.99
398.56	3569.04
398.78	3565.43
398.99	3613.03
399.21	3583.86
399.42	3609.09
399.64	3580.91
399.85	3592.46
400.07	3589.27
400.29	3621.79
400.50	3601.97
400.72	3635.06
400.93	3594.43
401.15	3615.32
401.36	3628.18
401.58	3635.14
401.79	3636.46
402.01	3660.54
402.23	3629.49
402.44	3678.15
402.66	3664.80
402.87	3673.15
403.09	3670.53
403.30	3671.11
403.52	3661.28
403.73	3684.62
403.95	3664.31
404.16	3696.75
404.38	3700.43
404.60	3703.96
404.81	3710.26
405.03	3729.19
405.24	3705.02
405.46	3742.62
405.67	3733.69
405.89	3747.05
406.10	3738.94
406.32	3756.22
406.53	3771.54
406.75	3766.87
406.96	3767.03
407.18	3771.46
407.39	3762.04
407.61	3791.61
407.82	3771.95
408.04	3807.83
408.25	3784.89
408.47	3818.56
408.68	3831.59
408.90	3809.63
409.12	3833.39
409.33	3829.37
409.55	3833.39
409.76	3853.21
409.98	3836.34
410.19	3881.88
410.41	3857.96
410.62	3891.55
410.84	3866.32
411.05	3893.35
411.27	3929.23
411.48	3911.21
411.70	3902.94
411.91	3942.18
412.12	3935.29
412.34	3926.69
412.55	3947.17
412.77	3918.42
412.98	3951.27
413.20	3951.84
413.41	3963.07
413.63	3978.96
413.84	3973.31
414.06	4019.02
414.27	4002.71
414.49	4015.82
414.70	4017.54
414.92	4029.26
415.13	4030.57
415.35	4022.87
415.56	4039.58
415.78	4050.72
415.99	4056.62
416.21	4073.82
416.42	4097.17
416.63	4110.52
416.85	4103.47
417.06	4111.01
417.28	4096.18
417.49	4130.83
417.71	4150.17
417.92	4125.51
418.14	4141.57
418.35	4165.57
418.57	4176.55
418.78	4182.03
418.99	4172.45
419.21	4185.47
419.42	4200.63
419.64	4196.53
419.85	4244.54
420.07	4245.77
420.28	4231.59
420.50	4246.83
420.71	4270.92
420.92	4256.17
421.14	4295.57
421.35	4285.50
421.57	4285.99
421.78	4307.70
422.00	4319.17
422.21	4337.76
422.42	4347.59
422.64	4327.93
422.85	4382.08
423.07	4394.12
423.28	4389.78
423.50	4400.18
423.71	4415.26
423.92	4474.32
424.14	4425.66
424.35	4449.66
424.57	4492.01
424.78	4479.24
424.99	4485.22
425.21	4493.90
425.42	4512.17
425.64	4482.59
425.85	4540.67
426.06	4554.03
426.28	4560.25
426.49	4571.23
426.71	4581.96
426.92	4581.39
427.13	4643.24
427.35	4668.14
427.56	4654.21
427.78	4666.75
427.99	4671.09
428.20	4689.60
428.42	4733.76
428.63	4730.64
428.84	4684.20
429.06	4736.21
429.27	4763.41
429.49	4760.30
429.70	4830.58
429.91	4776.44
430.13	4783.73
430.34	4818.79
430.56	4844.43
430.77	4887.52
430.98	4865.97
431.20	4912.26
431.41	4907.67
431.62	4926.59
431.84	4906.69
432.05	4968.70
432.26	4965.51
432.48	4948.47
432.69	5009.33
432.91	5003.11
433.12	5043.41
433.33	5042.02
433.55	5100.26
433.76	5096.98
433.97	5083.39
434.19	5100.18
434.40	5146.14
434.61	5159.00
434.83	5179.39
435.04	5142.70
435.25	5222.32
435.47	5223.55
435.68	5201.19
435.89	5290.48
436.11	5270.98
436.32	5301.62
436.53	5286.54
436.75	5288.43
436.96	5305.30
437.17	5302.60
437.39	5308.66
437.60	5368.05
437.81	5376.57
438.03	5417.53
438.24	5402.71
438.45	5482.17
438.67	5448.99
438.88	5501.09
439.09	5528.70
439.31	5510.10
439.52	5558.60
439.73	5536.40
439.94	5494.86
440.16	5607.75
440.37	5569.82
440.58	5667.47
440.80	5640.84
441.01	5631.42
441.22	5795.59
441.44	5727.51
441.65	5702.94
441.86	5760.20
442.08	5802.39
442.29	5762.00
442.50	5791.41
442.71	5784.36
442.93	5852.52
443.14	5836.79
443.35	5908.47
443.57	5846.13
443.78	5916.01
443.99	5956.97
444.20	5892.58
444.42	5977.12
444.63	5975.97
444.84	5994.49
445.06	6079.19
445.27	6037.66
445.48	6024.30
445.69	6069.69
445.91	6096.72
446.12	6077.22
446.33	6142.35
446.54	6199.12
446.76	6153.90
446.97	6178.56
447.18	6187.24
447.39	6228.61
447.61	6232.30
447.82	6279.40
448.03	6279.81
448.25	6310.20
448.46	6375.16
448.67	6431.44
448.88	6361.56
449.10	6466.01
449.31	6475.51
449.52	6436.52
449.73	6488.78
449.95	6580.45
450.16	6520.08
450.37	6631.81
450.58	6747.89
450.79	6578.24
451.01	6635.66
451.22	6618.22
451.43	6687.52
451.64	6751.42
451.86	6768.21
452.07	6767.80
452.28	6826.62
452.49	6912.22
452.71	6816.21
452.92	6839.31
453.13	6904.69
453.34	6921.23
453.55	7023.30
453.77	7072.46
453.98	7076.80
454.19	7001.68
454.40	7068.44
454.62	7136.84
454.83	7086.14
455.04	7201.31
455.25	7129.22
455.46	7408.24
455.68	7252.68
455.89	7249.56
456.10	7315.34
456.31	7358.52
456.52	7395.71
456.74	7385.96
456.95	7542.75
457.16	7498.84
457.37	7566.26
457.58	7571.34
457.80	7571.26
458.01	7609.27
458.22	7849.13
458.43	7695.61
458.64	7768.27
458.86	7710.36
459.07	7753.20
459.28	7741.90
459.49	7900.16
459.70	8062.93
459.91	7985.69
460.13	7993.96
460.34	8045.98
460.55	8031.72
460.76	8153.70
460.97	8159.76
461.19	8161.89
461.40	8377.99
461.61	8292.39
461.82	8305.66
462.03	8381.03
462.24	8383.65
462.46	8376.36
462.67	8386.92
462.88	8518.81
463.09	8481.54
463.30	8702.47
463.51	8553.96
463.72	8712.96
463.94	8805.28
464.15	8803.73
464.36	8688.06
464.57	8958.47
464.78	8983.62
464.99	9000.99
465.20	8963.71
465.42	9149.83
465.63	9136.64
465.84	9134.19
466.05	9230.28
466.26	9259.19
466.47	9382.24
466.68	9324.73
466.90	9491.27
467.11	9475.62
467.32	9561.88
467.53	9679.03
467.74	9551.73
467.95	9693.12
468.16	9791.50
468.37	9853.92
468.59	9854.58
468.80	10005.47
469.01	9891.69
469.22	10075.02
469.43	10283.59
469.64	10176.77
469.85	10302.59
470.06	10354.94
470.28	10505.42
470.49	10329.22
470.70	10515.91
470.91	10705.63
471.12	10612.41
471.33	10879.87
471.54	10752.41
471.75	10847.52
471.96	11133.82
472.17	11035.44
472.39	11326.99
472.60	11142.42
472.81	11396.95
473.02	11351.07
473.23	11594.53
473.44	11657.20
473.65	11572.74
473.86	11717.25
474.07	11809.98
474.28	11851.68
474.49	12138.23
474.71	12081.13
474.92	12228.67
475.13	12189.92
475.34	12268.40
475.55	12345.48
475.76	12477.29
475.97	12737.30
476.18	12667.01
476.39	12905.15
476.60	12995.26
476.81	13041.71
477.02	13214.40
477.23	13225.70
477.44	13280.42
477.65	13468.10
477.87	13620.55
478.08	13640.54
478.29	13753.99
478.50	14034.32
478.71	13897.11
478.92	14107.64
479.13	14184.80
479.34	14275.00
479.55	14395.91
479.76	14396.48
479.97	14524.69
480.18	14871.20
480.39	14692.62
480.60	14989.66
480.81	15087.71
481.02	15203.55
481.23	15168.81
481.44	15475.76
481.65	15600.03
481.86	15807.29
482.07	15494.60
482.28	16243.26
482.49	16038.22
482.71	16104.73
482.92	16221.55
483.13	16494.91
483.34	16411.60
483.55	16589.12
483.76	16577.98
483.97	16925.97
484.18	16913.19
484.39	17128.39
484.60	17059.25
484.81	17406.10
485.02	17302.30
485.23	17606.63
485.44	17711.73
485.65	17891.63
485.86	17793.49
486.07	18107.73
486.28	18148.12
486.49	18346.52
486.70	18489.39
486.91	18647.49
487.12	18578.76
487.33	18625.05
487.54	19023.75
487.75	19060.61
487.96	19164.07
488.17	19132.21
488.38	19430.80
488.59	19419.25
488.80	19598.73
489.01	19661.24
489.22	19969.25
489.43	19879.96
489.64	19870.62
489.85	20336.33
490.06	20057.23
490.26	20399.57
490.47	20320.36
490.68	20682.03
490.89	20875.44
491.10	20626.73
491.31	20997.66
491.52	21240.39
491.73	21183.62
491.94	21193.86
492.15	21426.75
492.36	21547.58
492.57	21575.92
492.78	21662.76
492.99	21803.25
493.20	22059.98
493.41	22113.56
493.62	22117.98
493.83	22183.93
494.04	22294.60
494.25	22582.21
494.46	22572.30
494.67	22486.86
494.88	22800.04
495.08	22839.19
495.29	22975.51
495.50	23192.59
495.71	23130.41
495.92	23394.27
496.13	23409.51
496.34	23404.51
496.55	23549.26
496.76	23926.42
496.97	23556.31
497.18	23924.53
497.39	23865.31
497.60	24321.43
497.81	24045.20
498.02	24365.18
498.22	24095.91
498.43	24626.33
498.64	24671.63
498.85	24628.46
499.06	24706.94
499.27	25046.90
499.48	24593.07
499.69	24954.42
499.90	25060.17
500.11	25237.36
500.32	25564.63
500.52	25238.35
500.73	25700.04
500.94	25683.00
501.15	25720.03
501.36	25765.41
501.57	25730.11
501.78	25928.02
501.99	26238.74
502.20	26155.51
502.41	26227.52
502.61	26169.27
502.82	26537.50
503.03	26372.59
503.24	26765.72
503.45	26513.74
503.66	26857.06
503.87	26890.73
504.08	27120.68
504.28	26995.59
504.49	27225.86
504.70	27260.18
504.91	27429.43
505.12	27200.71
505.33	27678.87
505.54	27607.52
505.75	27645.45
505.95	27902.35
506.16	27838.69
506.37	27790.20
506.58	28330.29
506.79	27873.76
507.00	28404.34
507.21	28138.60
507.41	28266.31
507.62	28422.78
507.83	28804.68
508.04	28487.57
508.25	28861.61
508.46	28653.70
508.67	29069.61
508.87	28901.34
509.08	29266.87
509.29	29076.49
509.50	29276.45
509.71	29384.83
509.92	29446.76
510.12	29290.21
510.33	29513.77
510.54	29346.74
510.75	29624.61
510.96	29837.84
511.17	30027.15
511.37	30102.03
511.58	30302.65
511.79	30034.04
512.00	30096.62
512.21	30449.45
512.42	30380.63
512.62	30445.19
512.83	30675.54
513.04	30551.68
513.25	30874.28
513.46	30303.14
513.66	31102.17
513.87	30891.23
514.08	31237.34
514.29	31091.61
514.50	31145.84
514.71	31450.74
514.91	31184.99
515.12	31218.01
515.33	31584.10
515.54	31456.31
515.75	31837.07
515.95	31571.16
516.16	31695.02
516.37	32045.80
516.58	32239.78
516.78	32037.93
516.99	32299.83
517.20	32242.97
517.41	32251.74
517.62	32457.52
517.82	32394.93
518.03	32776.35
518.24	33098.78
518.45	32532.64
518.66	32891.69
518.86	32675.67
519.07	33121.88
519.28	32563.77
519.49	33274.41
519.69	33373.29
519.90	33453.98
520.11	33657.79
520.32	33559.90
520.52	33768.38
520.73	33464.30
520.94	33884.22
521.15	33825.56
521.36	33462.99
521.56	34201.65
521.77	33615.60
521.98	34268.25
522.19	33812.70
522.39	34156.27
522.60	34088.03
522.81	34241.05
523.02	34110.72
523.22	34512.37
523.43	34709.06
523.64	34472.64
523.84	34598.14
524.05	34962.02
524.26	34906.15
524.47	34730.19
524.67	34845.94
524.88	35107.92
525.09	35375.30
525.30	35056.80
525.50	35080.48
525.71	35226.70
525.92	35274.21
526.13	35477.95
526.33	35385.05
526.54	35233.91
526.75	35485.89
526.95	35738.20
527.16	35202.13
527.37	35771.71
527.58	35963.48
527.78	35889.10
527.99	36225.04
528.20	36322.94
528.40	36001.24
528.61	35905.15
528.82	36311.96
529.03	36184.99
529.23	36133.95
529.44	36473.75
529.65	36457.53
529.85	36560.17
530.06	36527.65
530.27	36519.38
530.47	36326.54
530.68	37212.74
530.89	36459.33
531.09	37163.59
531.30	36848.94
531.51	36627.43
531.72	37024.16
531.92	37073.40
532.13	37256.65
532.34	37240.43
532.54	37255.83
532.75	37514.53
532.96	37492.33
533.16	37729.89
533.37	37925.92
533.58	37560.81
533.78	37884.39
533.99	38002.35
534.20	37475.45
534.40	37840.65
534.61	37938.70
534.82	38026.11
535.02	38146.78
535.23	38144.40
535.44	38417.19
535.64	38235.25
535.85	38369.68
536.06	38336.99
536.26	38305.86
536.47	38318.64
536.68	38763.87
536.88	38247.05
537.09	38798.11
537.29	38361.40
537.50	39021.10
537.71	38551.37
537.91	38744.95
538.12	38937.46
538.33	38690.72
538.53	38989.31
538.74	39026.26
538.95	39134.06
539.15	38963.26
539.36	39178.46
539.56	39339.92
539.77	39047.64
539.98	39064.59
540.18	39363.27
540.39	39083.27
540.60	39351.39
540.80	39622.79
541.01	39531.78
541.21	39498.35
541.42	39721.09
541.63	39529.16
541.83	39838.48
542.04	39807.35
542.25	39675.71
542.45	39861.17
542.66	39895.33
542.86	40066.54
543.07	39271.44
543.28	40242.26
543.48	40051.72
543.69	40321.39
543.89	40128.06
544.10	40740.24
544.31	40633.67
544.51	40411.67
544.72	40588.69
544.92	40471.55
545.13	40834.29
545.33	40740.65
545.54	40397.82
545.75	40504.23
545.95	40311.73
546.16	40336.30
546.36	40971.83
546.57	40276.09
546.78	39759.84
546.98	40303.29
547.19	39800.39
547.39	40646.04
547.60	40719.60
547.80	41372.82
548.01	41451.30
548.22	40917.68
548.42	41033.43
548.63	41193.42
548.83	41074.55
549.04	41292.62
549.24	40947.25
549.45	41229.79
549.65	41397.56
549.86	40892.45
550.07	41187.44
550.27	41525.84
550.48	41652.24
550.68	41507.98
550.89	41511.51
551.09	41696.23
551.30	41588.76
551.50	41662.81
551.71	41344.48
551.91	41277.71
552.12	41542.14
552.33	41818.62
552.53	41396.17
552.74	42038.74
552.94	42037.34
553.15	41789.70
553.35	41987.86
553.56	41659.78
553.76	42134.83
553.97	41723.43
554.17	42091.41
554.38	42665.01
554.58	42016.70
554.79	42441.12
554.99	41892.02
555.20	41874.00
555.40	42274.74
555.61	41963.78
555.81	41759.39
556.02	42553.76
556.22	42411.79
556.43	42229.20
556.63	42464.80
556.84	42363.30
557.04	42827.29
557.25	42290.23
557.45	42655.26
557.66	42516.65
557.86	42309.97
558.07	42762.32
558.27	42357.65
558.48	42306.61
558.68	42393.20
558.89	42638.71
559.09	42451.77
559.30	42239.68
559.50	42534.18
559.71	42282.36
559.91	42910.60
560.12	42696.22
560.32	42584.89
560.53	42877.26
560.73	42504.94
560.94	42947.95
561.14	42523.53
561.35	42958.52
561.55	42654.52
561.76	42849.65
561.96	42408.68
562.17	42875.62
562.37	43005.95
562.57	42748.23
562.78	42897.16
562.98	43058.71
563.19	42928.70
563.39	43180.44
563.60	43142.84
563.80	42658.70
564.01	43160.70
564.21	42884.30
564.42	42791.24
564.62	42949.67
564.82	43296.93
565.03	43062.48
565.23	43070.18
565.44	43334.69
565.64	43103.84
565.85	43502.38
566.05	43220.66
566.25	43495.17
566.46	43191.17
566.66	43452.90
566.87	43312.57
567.07	43139.64
567.28	43183.39
567.48	43571.76
567.68	42916.82
567.89	43775.58
568.09	43275.79
568.30	43394.98
568.50	43568.08
568.71	43381.71
568.91	43615.34
569.11	43243.43
569.32	43342.64
569.52	43417.51
569.73	43039.37
569.93	43613.13
570.13	43366.07
570.34	43126.78
570.54	43489.52
570.75	43104.91
570.95	43043.47
571.15	43033.15
571.36	43573.65
571.56	43148.00
571.77	43187.56
571.97	42895.44
572.17	43548.66
572.38	43391.62
572.58	43603.14
572.79	43430.13
572.99	43442.91
573.19	43326.91
573.40	43203.95
573.60	43349.19
573.81	43115.72
574.01	43291.03
574.21	43213.04
574.42	43281.44
574.62	43163.81
574.82	43530.07
575.03	43241.06
575.23	43885.68
575.43	43431.27
575.64	43413.25
575.84	43836.03
576.05	43414.15
576.25	43520.56
576.45	43461.09
576.66	43896.24
576.86	43386.55
577.06	43664.41
577.27	43409.65
577.47	43548.01
577.67	43462.16
577.88	43128.34
578.08	43659.42
578.28	43866.51
578.49	43671.62
578.69	43715.61
578.89	43592.49
579.10	43802.20
579.30	44260.05
579.50	43776.48
579.71	43487.39
579.91	43911.24
580.11	43701.52
580.32	43500.49
580.52	43526.63
580.72	44022.15
580.93	43429.47
581.13	43481.90
581.33	43860.61
581.54	43479.69
581.74	43524.09
581.94	43621.65
582.15	43874.62
582.35	43512.95
582.55	43575.70
582.76	43303.07
582.96	43803.92
583.16	43410.71
583.37	43798.43
583.57	43416.45
583.77	43967.92
583.97	43026.02
584.18	43984.88
584.38	43826.86
584.58	43527.94
584.79	43705.29
584.99	43417.35
585.19	43317.98
585.40	43343.62
585.60	43708.24
585.80	43395.15
586.00	43767.47
586.21	43780.74
586.41	43737.16
586.61	43888.71
586.82	43649.10
587.02	43449.62
587.22	43734.37
587.42	43378.44
587.63	43855.69
587.83	43277.10
588.03	43681.21
588.23	43229.18
588.44	43451.59
588.64	43143.41
588.84	43367.46
589.05	43407.03
589.25	43493.04
589.45	43413.91
589.65	43417.35
589.86	43619.19
590.06	43642.62
590.26	43386.63
590.46	43683.01
590.67	42948.94
590.87	43675.72
591.07	43740.03
591.27	43159.63
591.48	43567.01
591.68	43147.26
591.88	43959.89
592.08	43314.13
592.29	43633.53
592.49	43503.28
592.69	43722.33
592.89	43315.36
593.10	43659.99
593.30	43414.48
593.50	44007.74
593.70	43065.01
593.90	43874.45
594.11	43657.94
594.31	43651.23
594.51	43765.91
594.71	43622.64
594.92	43653.11
595.12	43290.45
595.32	43410.14
595.52	43603.22
595.72	42953.77
595.93	43767.47
596.13	43401.21
596.33	43154.06
596.53	43485.34
596.73	43375.81
596.94	43301.27
597.14	43602.16
597.34	43356.32
597.54	43583.97
597.74	43260.31
597.95	43377.94
598.15	43489.93
598.35	43537.77
598.55	43533.43
598.75	43355.33
598.96	43662.94
599.16	43293.32
599.36	43313.31
599.56	43220.82
599.76	43061.41
599.97	43590.03
600.17	43335.02
600.37	43536.54
600.57	43071.40
600.77	43945.23
600.97	43574.71
601.18	43980.37
601.38	43415.38
601.58	43571.44
601.78	43143.33
601.98	42981.70
602.18	43180.44
602.39	43454.13
602.59	43226.72
602.79	43031.67
602.99	43196.41
603.19	43322.49
603.39	43198.21
603.60	43270.06
603.80	43405.39
604.00	43231.23
604.20	43224.18
604.40	43373.03
604.60	43009.31
604.80	43039.29
605.01	43112.28
605.21	42923.38
605.41	42811.23
605.61	42647.23
605.81	43105.48
606.01	43360.58
606.21	42900.52
606.42	43161.19
606.62	42906.99
606.82	43415.63
607.02	42998.25
607.22	43130.71
607.42	43303.56
607.62	42676.80
607.82	42833.43
608.03	43003.66
608.23	42900.69
608.43	42887.99
608.63	43324.70
608.83	42963.68
609.03	42929.77
609.23	42887.33
609.43	42960.08
609.63	42867.18
609.84	42635.10
610.04	43102.45
610.24	42934.35
610.44	42910.19
610.64	42557.77
610.84	42898.39
611.04	43263.83
611.24	42866.28
611.44	42272.78
611.64	42900.77
611.85	42819.42
612.05	42757.49
612.25	42904.37
612.45	42489.21
612.65	42761.18
612.85	42692.94
613.05	42273.93
613.25	42731.36
613.45	42541.23
613.65	42667.79
613.85	42259.43
614.05	42640.84
614.25	42738.73
614.46	42588.25
614.66	42298.58
614.86	42271.22
615.06	42440.88
615.26	42705.96
615.46	41983.61
615.66	42546.14
615.86	42543.27
616.06	42211.75
616.26	42257.95
616.46	42778.54
616.66	42168.00
616.86	42668.45
617.06	42217.40
617.26	42542.62
617.46	42177.34
617.66	41971.07
617.86	41713.52
618.07	41889.97
618.27	41762.75
618.47	41755.46
618.67	41971.56
618.87	42032.51
619.07	41697.14
619.27	41710.32
619.47	41758.98
619.67	42260.82
619.87	41847.29
620.07	42161.20
620.27	42027.43
620.47	41698.20
620.67	41997.78
620.87	41914.22
621.07	42007.12
621.27	41799.94
621.47	41595.56
621.67	41794.21
621.87	41384.12
622.07	41790.44
622.27	41683.95
622.47	41587.86
622.67	41691.81
622.87	41491.03
623.07	41946.33
623.27	42158.26
623.47	41431.39
623.67	41866.13
623.87	42054.71
624.07	41793.23
624.27	41255.27
624.47	41459.08
624.67	41244.21
624.87	41338.49
625.07	41032.53
625.27	41558.04
625.47	41084.96
625.67	41068.41
625.87	41269.36
626.07	41219.14
626.27	41285.90
626.47	41235.69
626.67	41136.48
626.87	40969.78
627.07	41311.30
627.27	41288.11
627.47	41426.64
627.67	41275.09
627.87	41156.64
628.07	41313.02
628.27	41026.55
628.47	40662.75
628.67	41096.10
628.86	40978.95
629.06	40647.92
629.26	40566.66
629.46	40940.12
629.66	40810.04
629.86	40339.82
630.06	40785.71
630.26	40653.00
630.46	40958.56
630.66	40526.27
630.86	40686.18
631.06	40568.70
631.26	40409.78
631.46	40787.76
631.66	40741.72
631.86	40416.01
632.06	40607.45
632.26	40239.72
632.45	40181.56
632.65	40229.32
632.85	40200.56
633.05	40078.75
633.25	40201.71
633.45	40088.33
633.65	40094.39
633.85	40655.95
634.05	39926.46
634.25	40283.95
634.45	40252.50
634.65	40460.57
634.84	40101.11
635.04	40258.23
635.24	40061.30
635.44	40437.80
635.64	40234.07
635.84	40321.39
636.04	40140.35
636.24	39989.13
636.44	40079.98
636.64	39431.75
636.84	40194.25
637.03	39480.09
637.23	39712.74
637.43	39714.29
637.63	39683.16
637.83	39735.02
638.03	39906.80
638.23	39453.13
638.43	39862.48
638.62	39861.50
638.82	39056.65
639.02	39785.81
639.22	39460.75
639.42	39631.96
639.62	39440.93
639.82	39551.52
640.02	39697.09
640.21	39647.12
640.41	39244.08
640.61	39446.83
640.81	39412.99
641.01	39357.54
641.21	39141.27
641.41	39503.11
641.61	38993.32
641.80	39064.18
642.00	39297.65
642.20	39384.73
642.40	38740.69
642.60	39105.72
642.80	39132.10
642.99	38741.75
643.19	39095.72
643.39	38759.37
643.59	39031.34
643.79	38930.17
643.99	39164.70
644.19	38867.83
644.38	38523.85
644.58	38664.09
644.78	38516.64
644.98	38692.27
645.18	38828.50
645.38	38989.47
645.57	38554.08
645.77	38461.18
645.97	38259.82
646.17	38463.56
646.37	38445.94
646.56	38204.78
646.76	38303.32
646.96	38406.38
647.16	38376.80
647.36	38414.57
647.55	38414.98
647.75	38519.51
647.95	38295.79
648.15	38617.73
648.35	38386.14
648.55	38535.40
648.74	38409.74
648.94	38246.80
649.14	38632.64
649.34	38324.54
649.54	38298.41
649.73	38342.89
649.93	37991.70
650.13	38015.54
650.33	37893.89
650.52	38021.52
650.72	38184.13
650.92	37870.71
651.12	37838.27
651.32	37936.82
651.51	38059.62
651.71	37969.18
651.91	37877.51
652.11	37839.09
652.30	37970.00
652.50	38303.00
652.70	38070.92
652.90	37727.43
653.10	37816.07
653.29	37531.48
653.49	37783.14
653.69	37401.81
653.89	37511.41
654.08	37357.49
654.28	37710.07
654.48	37548.03
654.68	37716.79
654.87	37330.05
655.07	37231.09
655.27	37384.19
655.47	36951.01
655.66	37021.95
655.86	36812.32
656.06	37187.67
656.26	36729.42
656.45	37032.19
656.65	37147.20
656.85	37006.47
657.04	36697.14
657.24	36626.12
657.44	36562.96
657.64	36770.95
657.83	36039.17
658.03	36543.87
658.23	36541.91
658.43	36437.62
658.62	36629.89
658.82	36467.52
659.02	36410.92
659.21	36527.16
659.41	36319.42
659.61	36573.77
659.81	36321.87
660.00	36144.76
660.20	36301.07
660.40	36149.35
660.59	36226.68
660.79	35882.71
660.99	36262.97
661.19	36172.86
661.38	36209.56
661.58	35717.80
661.78	36157.63
661.97	36045.97
662.17	36605.80
662.37	36014.84
662.56	36123.88
662.76	36019.84
662.96	36081.28
663.15	35949.06
663.35	35864.03
663.55	35703.30
663.74	35361.87
663.94	35685.45
664.14	35369.73
664.33	35594.19
664.53	35458.78
664.73	35772.77
664.93	35183.45
665.12	35482.04
665.32	35330.98
665.52	35200.90
665.71	35050.58
665.91	35233.83
666.10	35108.57
666.30	35254.31
666.50	35042.55
666.69	35070.48
666.89	35420.44
667.09	35561.99
667.28	35173.54
667.48	35040.09
667.68	35034.85
667.87	34898.37
668.07	34639.18
668.27	34887.07
668.46	34942.28
668.66	34779.92
668.86	35088.18
669.05	34709.63
669.25	34871.67
669.44	34618.86
669.64	34662.69
669.84	34564.39
670.03	34894.52
670.23	34508.27
670.43	34436.59
670.62	34307.49
670.82	34324.53
671.01	34470.35
671.21	34271.53
671.41	34415.30
671.60	34690.62
671.80	34802.94
672.00	34513.93
672.19	34675.63
672.39	34553.98
672.58	34393.59
672.78	34203.86
672.98	34457.32
673.17	34262.27
673.37	33730.21
673.56	33969.25
673.76	34148.24
673.96	34323.55
674.15	33995.05
674.35	34211.65
674.54	34100.07
674.74	34178.14
674.94	34134.89
675.13	34311.59
675.33	33836.05
675.52	34180.03
675.72	33930.09
675.91	33788.62
676.11	33891.67
676.31	33594.22
676.50	33715.87
676.70	33742.42
676.89	33671.64
677.09	33767.48
677.28	33569.98
677.48	33254.02
677.68	33435.79
677.87	33307.18
678.07	33189.22
678.26	33414.58
678.46	33347.08
678.65	33386.81
678.85	33578.66
679.04	33305.46
679.24	33338.56
679.44	33249.51
679.63	33342.08
679.83	33018.42
680.02	33087.56
680.22	33074.78
680.41	33096.49
680.61	33145.80
680.80	33057.98
681.00	33261.96
681.19	33122.29
681.39	33035.37
681.59	33041.68
681.78	32881.53
681.98	33094.60
682.17	32672.47
682.37	32797.89
682.56	32622.09
682.76	32839.02
682.95	32666.58
683.15	32853.27
683.34	32807.31
683.54	32991.88
683.73	33059.13
683.93	32608.66
684.12	32899.72
684.32	32880.63
684.51	32251.33
684.71	32506.10
684.90	32378.96
685.10	32299.66
685.29	32195.87
685.49	32475.46
685.68	32517.65
685.88	32464.65
686.07	32345.70
686.27	32535.75
686.46	32354.06
686.66	32128.94
686.85	32019.58
687.05	31950.69
687.24	31917.59
687.44	32117.72
687.63	32099.12
687.83	31623.83
688.02	31982.80
688.22	32080.28
688.41	31915.46
688.61	31905.63
688.80	32064.80
689.00	31701.00
689.19	31394.21
689.39	31757.93
689.58	31799.14
689.77	31743.68
689.97	31838.62
690.16	31711.65
690.36	31432.06
690.55	31530.12
690.75	31970.27
690.94	31625.88
691.14	31628.09
691.33	31264.29
691.53	31427.15
691.72	31176.31
691.91	31097.50
692.11	31067.36
692.30	31229.97
692.50	31178.77
692.69	30977.74
692.89	31208.09
693.08	31104.63
693.28	31148.46
693.47	31169.35
693.66	31261.18
693.86	31035.25
694.05	31029.02
694.25	31041.88
694.44	30971.02
694.64	30850.93
694.83	30751.81
695.02	30801.20
695.22	30888.61
695.41	30735.10
695.61	30708.88
695.80	30663.50
695.99	30640.32
696.19	30590.43
696.38	30616.31
696.58	30334.43
696.77	30696.59
696.96	30581.09
697.16	30449.61
697.35	30352.62
697.55	30388.74
697.74	30235.15
697.93	30522.03
698.13	30193.45
698.32	30304.45
698.52	30183.86
698.71	30026.66
698.90	30487.05
699.10	30275.94
699.29	30371.62
699.49	30378.09
699.68	30139.87
699.87	29996.11
700.07	30259.48
700.26	30161.09
700.45	30167.24
700.65	30160.35
700.84	30503.76
701.04	30102.68
701.23	30250.46
701.42	30030.43
701.62	29875.36
701.81	29901.82
702.00	29769.60
702.20	29469.61
702.39	29548.75
702.58	29623.95
702.78	29528.60
702.97	29385.24
703.17	29531.30
703.36	29499.27
703.55	29332.07
703.75	29219.11
703.94	29265.72
704.13	29135.39
704.33	29276.12
704.52	29386.30
704.71	29251.14
704.91	29111.63
705.10	28959.67
705.29	29126.70
705.49	29120.31
705.68	29088.69
705.87	29107.78
706.07	28896.02
706.26	29114.91
706.45	28862.52
706.65	28815.41
706.84	29089.18
707.03	29380.98
707.23	28853.59
707.42	28715.39
707.61	29011.20
707.80	28653.46
708.00	28662.80
708.19	28559.58
708.38	28797.80
708.58	28386.16
708.77	28787.07
708.96	28310.55
709.16	28338.48
709.35	28848.67
709.54	28473.24
709.74	28278.02
709.93	28128.03
710.12	28489.95
710.31	28606.68
710.51	28306.04
710.70	28266.72
710.89	28443.83
711.09	28036.36
711.28	28042.51
711.47	28187.75
711.66	28152.93
711.86	28036.36
712.05	28268.77
712.24	28245.42
712.43	27951.41
712.63	27768.82
712.82	28001.55
713.01	27806.91
713.21	27598.10
713.40	27556.32
713.59	27782.58
713.78	27359.55
713.98	27620.71
714.17	27649.30
714.36	27767.02
714.55	27591.22
714.75	27782.99
714.94	27683.87
715.13	27792.74
715.32	27313.35
715.52	27452.20
715.71	27273.05
715.90	27265.43
716.09	27159.42
716.29	27392.24
716.48	27132.39
716.67	26837.32
716.86	27064.23
717.06	27019.83
717.25	27140.17
717.44	27190.80
717.63	27166.96
717.82	26800.29
718.02	26834.45
718.21	27135.09
718.40	27045.39
718.59	26971.75
718.79	26811.84
718.98	26927.84
719.17	26976.91
719.36	26939.80
719.55	26648.74
719.75	26518.74
719.94	26447.96
720.13	26684.95
720.32	26578.05
720.51	26465.74
720.71	26524.47
720.90	26354.08
721.09	26546.75
721.28	26365.88
721.47	26570.59
721.67	26284.53
721.86	26247.75
722.05	26192.78
722.24	25952.68
722.43	26185.25
722.63	25886.65
722.82	26015.92
723.01	25997.41
723.20	25891.81
723.39	25906.40
723.58	26060.98
723.78	25779.09
723.97	26158.38
724.16	25862.57
724.35	25926.47
724.54	25724.62
724.73	25875.76
724.93	25684.23
725.12	25828.65
725.31	25372.78
725.50	25561.44
725.69	25651.63
725.88	25418.16
726.08	25165.44
726.27	25577.82
726.46	25140.62
726.65	25736.66
726.84	25317.73
727.03	25391.70
727.23	25534.65
727.42	25334.93
727.61	25398.66
727.80	25364.67
727.99	25509.50
728.18	25439.21
728.37	25158.39
728.56	24946.80
728.76	24816.55
728.95	24867.83
729.14	24853.25
729.33	24880.69
729.52	25018.81
729.71	25056.24
729.90	25067.06
730.09	24899.04
730.29	25107.11
730.48	24732.66
730.67	24967.20
730.86	24670.40
731.05	24866.35
731.24	24623.06
731.43	24712.76
731.62	24532.37
731.81	24452.50
732.01	24734.30
732.20	24335.36
732.39	24439.72
732.58	24351.17
732.77	23985.07
732.96	24229.68
733.15	24328.80
733.34	24140.14
733.53	24237.71
733.72	24356.66
733.92	24289.40
734.11	24182.66
734.30	24151.61
734.49	24275.23
734.68	24106.07
734.87	24031.85
735.06	24010.47
735.25	24128.51
735.44	24012.11
735.63	24057.16
735.82	24022.10
736.01	23896.68
736.20	23794.86
736.40	24033.73
736.59	23984.66
736.78	23920.85
736.97	23616.85
737.16	23657.64
737.35	23710.48
737.54	23784.70
737.73	23600.79
737.92	23790.19
738.11	23743.66
738.30	23724.65
738.49	23715.07
738.68	23713.43
738.87	23822.22
739.06	23572.45
739.25	23647.49
739.44	23573.92
739.63	23437.36
739.82	23201.03
740.01	23371.67
740.20	23253.54
740.39	23335.87
740.59	23292.78
740.78	23288.03
740.97	23150.07
741.16	22998.93
741.35	23132.22
741.54	23107.48
741.73	23098.71
741.92	22953.63
742.11	23014.66
742.30	22985.17
742.49	22825.35
742.68	23024.33
742.87	23000.74
743.06	22820.84
743.25	23034.49
743.44	22887.85
743.63	23016.30
743.82	22870.98
744.01	22834.36
744.20	22671.42
744.39	22832.23
744.58	22741.14
744.77	22620.63
744.96	22457.94
745.15	22587.78
745.34	22426.32
745.53	22555.18
745.72	22362.51
745.91	22434.60
746.10	22232.91
746.29	22412.89
746.48	22340.88
746.67	22335.97
746.86	22335.97
747.04	22271.25
747.23	22231.85
747.42	22350.22
747.61	22212.60
747.80	22392.16
747.99	22006.49
748.18	22271.66
748.37	22172.62
748.56	21982.32
748.75	22028.28
748.94	22007.80
749.13	22031.64
749.32	21886.07
749.51	21959.14
749.70	21931.04
749.89	21840.52
750.08	21856.50
750.27	21631.14
750.46	21749.18
750.65	21897.05
750.84	21630.65
751.02	21750.82
751.21	21634.74
751.40	21685.94
751.59	21729.77
751.78	21753.85
751.97	21679.22
752.16	21573.79
752.35	21662.51
752.54	21354.42
752.73	21577.32
752.92	21471.97
753.11	21536.28
753.30	21616.06
753.49	21532.02
753.67	21417.98
753.86	21336.72
754.05	21385.38
754.24	21296.01
754.43	21287.32
754.62	21295.52
754.81	21065.16
755.00	21116.20
755.19	21057.05
755.38	20820.14
755.56	21020.60
755.75	21229.16
755.94	20963.01
756.13	21012.00
756.32	21024.61
756.51	20951.95
756.70	20970.30
756.89	20875.93
757.08	20780.66
757.26	20877.98
757.45	20881.50
757.64	20784.67
757.83	20992.17
758.02	20864.05
758.21	20852.09
758.40	20863.31
758.59	20840.38
758.77	20708.49
758.96	20753.62
759.15	20795.81
759.34	20613.13
759.53	20592.33
759.72	20660.97
759.91	20484.19
760.09	20609.61
760.28	20568.57
760.47	20338.38
760.66	20536.62
760.85	20260.88
761.04	20424.06
761.23	20397.20
761.41	20333.79
761.60	20398.10
761.79	20334.94
761.98	20245.56
762.17	20480.92
762.36	20259.08
762.54	20410.47
762.73	20290.54
762.92	20104.58
763.11	20311.02
763.30	20339.11
763.49	20216.07
763.67	20134.40
763.86	20065.83
764.05	20162.66
764.24	20075.58
764.43	20228.20
764.61	20009.31
764.80	20034.62
764.99	20244.09
765.18	19930.50
765.37	20069.27
765.55	20039.78
765.74	19940.09
765.93	19833.02
766.12	19926.98
766.31	19862.59
766.49	19917.89
766.68	19898.80
766.87	19893.31
767.06	19854.65
767.25	19918.71
767.43	19903.55
767.62	19725.95
767.81	19887.41
768.00	19667.38
768.19	19627.24
768.37	19680.65
768.56	19642.15
768.75	19662.63
768.94	19646.25
769.12	19543.85
769.31	19477.49
769.50	19500.02
769.69	19594.80
769.88	19406.47
770.06	19706.21
770.25	19544.58
770.44	19428.83
770.63	19582.84
770.81	19523.37
771.00	19490.35
771.19	19530.58
771.38	19521.81
771.56	19611.92
771.75	19320.62
771.94	19445.38
772.13	19440.22
772.31	19307.35
772.50	19511.57
772.69	19407.53
772.88	19538.28
773.06	19327.75
773.25	19428.18
773.44	19319.55
773.62	19231.49
773.81	19243.37
774.00	19130.57
774.19	19202.49
774.37	19145.80
774.56	19237.23
774.75	18906.36
774.94	19122.54
775.12	18871.05
775.31	18931.10
775.50	19086.17
775.68	18980.74
775.87	18977.54
776.06	18877.93
776.25	19012.69
776.43	18906.85
776.62	19025.63
776.81	18859.42
776.99	18956.08
777.18	18892.76
777.37	18635.04
777.55	18824.44
777.74	18800.27
777.93	18813.79
778.12	18845.82
778.30	18836.40
778.49	18812.56
778.68	18871.79
778.86	18881.04
779.05	19004.99
779.24	19007.61
779.42	18884.40
779.61	18759.89
779.80	18686.40
779.98	18691.97
780.17	18726.63
780.36	18409.11
780.54	18559.92
780.73	18268.29
780.92	18525.02
781.10	18482.75
781.29	18413.70
781.48	18418.04
781.66	18484.39
781.85	18552.22
782.04	18418.12
782.22	18577.78
782.41	18430.65
782.60	18518.31
782.78	18499.47
782.97	18502.91
783.16	18260.59
783.34	18273.12
783.53	18302.04
783.71	18186.13
783.90	18245.85
784.09	18197.68
784.27	18259.53
784.46	18248.47
784.65	18331.29
784.83	18245.85
785.02	18291.72
785.20	18478.25
785.39	18155.08
785.58	18343.41
785.76	18280.17
785.95	18224.71
786.14	18293.52
786.32	18286.89
786.51	18233.97
786.69	18263.21
786.88	18229.87
787.07	18100.44
787.25	18118.13
787.44	18081.84
787.62	18044.24
787.81	18231.43
788.00	18251.58
788.18	18332.76
788.37	18373.06
788.55	18663.55
788.74	18522.24
788.93	18646.10
789.11	18809.04
789.30	18744.81
789.48	18684.36
789.67	18692.47
789.86	18629.80
790.04	18657.98
790.23	18477.02
790.41	18349.64
790.60	18442.12
790.78	18367.33
790.97	18217.91
791.16	18345.70
791.34	18540.10
791.53	18233.56
791.71	18519.86
791.90	18336.28
792.08	18387.32
792.27	18329.81
792.46	18238.31
792.64	18360.70
792.83	18340.71
793.01	18384.45
793.20	18354.88
793.38	18371.84
793.57	18407.23
793.75	18374.13
793.94	18469.73
794.12	18610.14
794.31	18390.27
794.50	18552.79
794.68	18595.15
794.87	18628.57
795.05	18766.93
795.24	18602.68
795.42	18481.77
795.61	18748.50
795.79	18764.31
795.98	18461.05
796.16	18628.73
796.35	18660.93
796.53	18490.70
796.72	18730.64
796.90	18712.78
797.09	18614.56
797.27	18628.24
797.46	18662.07
797.64	18609.48
797.83	18614.15
798.01	18649.87
798.20	18761.77
798.38	18557.46
798.57	18733.02
798.75	18596.13
798.94	18446.71
799.12	18881.94
799.31	18676.82
799.49	18772.50
799.68	18673.62
799.86	18775.86
800.05	18655.60
800.23	18769.06
800.42	18633.24
800.60	18866.87
800.79	18657.00
800.97	18770.62
801.16	18916.02
801.34	18711.23
801.53	18721.63
801.71	18756.77
801.90	18560.00
802.08	18769.63
802.27	18627.91
802.45	18415.34
802.64	18514.37
802.82	18511.51
803.00	18331.45
803.19	18459.24
803.37	18582.86
803.56	18421.64
803.74	18456.87
803.93	18464.24
804.11	18451.95
804.30	18266.00
804.48	18518.96
804.67	18470.14
804.85	18369.95
805.03	18517.00
805.22	18445.15
805.40	18354.39
805.59	18534.77
805.77	18468.09
805.96	18391.91
806.14	18303.11
806.32	18351.03
806.51	18417.46
806.69	18212.83
806.88	18166.71
807.06	18246.42
807.25	18279.92
807.43	18347.92
807.61	18426.07
807.80	18343.98
807.98	18525.11
808.17	18386.99
808.35	18295.57
808.53	18469.73
808.72	18362.91
808.90	18339.89
809.09	18414.19
809.27	18412.30
809.45	18180.72
809.64	18270.58
809.82	18166.30
810.01	18163.35
810.19	18146.15
810.37	18016.31
810.56	18068.33
810.74	18206.11
810.93	18061.45
811.11	18114.69
811.29	18012.05
811.48	18147.62
811.66	18117.23
811.84	18033.27
812.03	17970.60
812.21	17935.21
812.40	17990.26
812.58	18058.99
812.76	17843.87
812.95	17968.80
813.13	17762.77
813.31	17844.93
813.50	17911.45
813.68	17904.57
813.86	17981.90
814.05	18047.03
814.23	17833.14
814.42	18076.11
814.60	17997.55
814.78	18123.05
814.97	18069.23
815.15	17982.97
815.33	18024.01
815.52	17825.85
815.70	17818.23
815.88	17797.26
816.07	17554.78
816.25	17668.56
816.43	17653.08
816.62	17519.55
816.80	17600.82
816.98	17546.83
817.17	17546.18
817.35	17532.01
817.53	17537.66
817.72	17607.86
817.90	17432.47
818.08	17481.38
818.26	17586.15
818.45	17373.49
818.63	17534.05
818.81	17572.80
819.00	17359.89
819.18	17531.60
819.36	17442.55
819.55	17521.68
819.73	17391.60
819.91	17556.66
820.09	17475.65
820.28	17520.54
820.46	17344.98
820.64	17628.91
820.83	17306.73
821.01	17382.42
821.19	17353.09
821.38	17439.85
821.56	17356.94
821.74	17464.18
821.92	17319.34
822.11	17449.27
822.29	17132.90
822.47	17119.87
822.65	17145.68
822.84	17206.46
823.02	17015.67
823.20	17334.01
823.39	17087.92
823.57	17155.83
823.75	17135.85
823.93	17047.37
824.12	17126.43
824.30	16913.11
824.48	16961.93
824.66	17124.05
824.85	16774.34
825.03	16994.78
825.21	17093.90
825.39	17040.33
825.58	17101.11
825.76	17113.48
825.94	17117.00
826.12	17079.81
826.31	16915.08
826.49	17041.31
826.67	17026.48
826.85	16928.84
827.03	16946.20
827.22	17070.15
827.40	16956.28
827.58	17000.68
827.76	17059.83
827.95	16920.40
828.13	17002.15
828.31	16964.64
828.49	17025.09
828.67	16993.47
828.86	16962.26
829.04	17008.22
829.22	16905.24
829.40	16895.66
829.58	16747.31
829.77	16716.26
829.95	16667.03
830.13	16638.52
830.31	16592.48
830.49	16628.03
830.68	16596.66
830.86	16520.39
831.04	16562.09
831.22	16586.17
831.40	16562.91
831.59	16720.35
831.77	16588.06
831.95	16652.61
832.13	16419.63
832.31	16615.42
832.50	16499.09
832.68	16425.20
832.86	16464.44
833.04	16572.00
833.22	16415.29
833.40	16657.77
833.59	16530.30
833.77	16695.12
833.95	16276.03
834.13	16721.58
834.31	16431.34
834.49	16449.45
834.67	16359.26
834.86	16439.29
835.04	16379.57
835.22	16415.37
835.40	16341.73
835.58	16371.13
835.76	16384.16
835.95	16430.69
836.13	16314.36
836.31	16241.38
836.49	16280.86
836.67	16307.07
836.85	16288.48
837.03	16244.00
837.21	16239.98
837.40	16188.13
837.58	15972.93
837.76	16136.52
837.94	16120.30
838.12	16282.09
838.30	16093.10
838.48	16127.92
838.66	16058.61
838.85	16050.59
839.03	15986.69
839.21	16025.85
839.39	15881.83
839.57	15988.16
839.75	15947.20
839.93	16015.93
840.11	16124.64
840.29	16039.28
840.47	16041.08
840.66	16072.70
840.84	16014.05
841.02	15925.33
841.20	15889.04
841.38	15894.94
841.56	15862.66
841.74	15937.21
841.92	15666.80
842.10	15730.37
842.28	15802.29
842.46	15645.91
842.65	15668.76
842.83	15739.30
843.01	15786.40
843.19	15558.17
843.37	15742.82
843.55	15699.40
843.73	15836.53
843.91	15818.43
844.09	15757.40
844.27	15898.79
844.45	15734.54
844.63	15781.32
844.81	15731.35
844.99	15735.20
845.17	15603.39
845.35	15675.48
845.54	15570.87
845.72	15578.16
845.90	15524.67
846.08	15499.11
846.26	15349.20
846.44	15544.82
846.62	15285.55
846.80	15417.35
846.98	15396.71
847.16	15397.45
847.34	15445.37
847.52	15414.82
847.70	15322.90
847.88	15411.78
848.06	15389.42
848.24	15398.43
848.42	15454.30
848.60	15316.18
848.78	15420.71
848.96	15424.81
849.14	15393.02
849.32	15488.21
849.50	15334.53
849.68	15503.29
849.86	15383.44
850.04	15337.98
850.22	15408.67
850.40	15196.91
850.58	15343.79
850.76	15570.30
850.94	15122.37
851.12	15250.16
851.30	15123.84
851.48	15283.17
851.66	15184.95
851.84	15180.69
852.02	15174.63
852.20	15367.14
852.38	15260.73
852.56	15311.93
852.74	15280.47
852.92	15178.73
853.10	15116.30
853.28	15172.50
853.46	14906.75
853.64	15061.91
853.82	14924.37
854.00	15011.77
854.18	14952.06
854.36	14891.76
854.54	14944.36
854.72	14774.62
854.90	14763.07
855.07	14887.50
855.25	14877.59
855.43	14881.44
855.61	14817.63
855.79	14784.04
855.97	14776.42
856.15	14818.28
856.33	14780.19
856.51	14830.90
856.69	14637.90
856.87	14731.86
857.05	14586.62
857.23	14594.64
857.41	14471.27
857.59	14521.90
857.77	14473.16
857.94	14434.74
858.12	14506.09
858.30	14518.95
858.48	14452.68
858.66	14374.94
858.84	14508.06
859.02	14386.57
859.20	14384.69
859.38	14579.33
859.56	14525.26
859.74	14527.31
859.92	14595.14
860.09	14477.50
860.27	14554.75
860.45	14405.49
860.63	14411.47
860.81	14476.68
860.99	14341.19
861.17	14215.36
861.35	14035.55
861.53	14006.96
861.70	13973.62
861.88	14225.35
862.06	14205.94
862.24	14029.00
862.42	13990.66
862.60	14155.97
862.78	14135.16
862.96	14196.11
863.14	14020.80
863.31	14032.35
863.49	14026.70
863.67	13951.17
863.85	13965.59
864.03	14040.46
864.21	14062.09
864.39	13979.84
864.56	13927.33
864.74	14022.44
864.92	13884.16
865.10	13886.05
865.28	13928.73
865.46	14029.41
865.64	13805.69
865.81	13922.34
865.99	13769.48
866.17	13913.24
866.35	13774.88
866.53	13829.36
866.71	13802.16
866.88	13796.92
867.06	13629.81
867.24	13787.01
867.42	13669.78
867.60	13801.83
867.78	13700.34
867.95	13857.05
868.13	13651.10
868.31	13802.33
868.49	13776.85
868.67	13775.46
868.84	13654.71
869.02	13725.16
869.20	13509.71
869.38	13650.04
869.56	13547.31
869.73	13455.32
869.91	13484.24
870.09	13463.26
870.27	13406.99
870.45	13459.66
870.62	13406.49
870.80	13517.82
870.98	13500.21
871.16	13512.58
871.34	13474.16
871.51	13470.56
871.69	13393.22
871.87	13456.79
872.05	13424.68
872.23	13367.42
872.40	13291.40
872.58	13397.65
872.76	13244.30
872.94	13313.35
873.11	13305.73
873.29	13280.42
873.47	13237.17
873.65	13179.91
873.83	13131.74
874.00	13162.05
874.18	13155.00
874.36	13176.96
874.54	13211.77
874.71	13126.25
874.89	13085.62
875.07	13165.90
875.25	13118.06
875.42	13078.82
875.60	13024.84
875.78	13086.03
875.96	12892.54
876.13	12915.56
876.31	12769.25
876.49	12794.07
876.66	12617.04
876.84	12883.20
877.02	12757.37
877.20	12779.24
877.37	12738.69
877.55	12758.35
877.73	12759.25
877.91	12700.76
878.08	12838.31
878.26	12858.13
878.44	12820.53
878.61	12832.00
878.79	12773.51
878.97	12776.38
879.15	12850.76
879.32	12801.52
879.50	12777.20
879.68	12857.89
879.85	12716.25
880.03	12834.87
880.21	12643.42
880.38	12815.86
880.56	12680.53
880.74	12797.92
880.92	12576.33
881.09	12697.24
881.27	12619.91
881.45	12602.87
881.62	12599.10
881.80	12572.48
881.98	12583.70
882.15	12711.74
882.33	12649.73
882.51	12722.23
882.68	12650.47
882.86	12723.21
883.04	12593.45
883.21	12634.66
883.39	12681.02
883.57	12534.47
883.74	12549.71
883.92	12575.84
884.10	12557.00
884.27	12551.26
884.45	12466.72
884.63	12594.02
884.80	12560.27
884.98	12609.92
885.16	12556.10
885.33	12586.32
885.51	12601.40
885.69	12621.47
885.86	12572.23
886.04	12643.75
886.21	12504.49
886.39	12629.66
886.57	12467.54
886.74	12692.74
886.92	12625.81
887.10	12659.31
887.27	12623.11
887.45	12651.53
887.62	12619.34
887.80	12661.69
887.98	12753.85
888.15	12674.71
888.33	12604.51
888.51	12706.91
888.68	12617.78
888.86	12665.95
889.03	12548.89
889.21	12566.50
889.39	12585.01
889.56	12515.06
889.74	12496.05
889.91	12489.25
890.09	12465.90
890.27	12491.87
890.44	12480.57
890.62	12525.05
890.79	12479.58
890.97	12514.32
891.14	12456.40
891.32	12569.29
891.50	12560.27
891.67	12658.82
891.85	12636.70
892.02	12606.48
892.20	12726.24
892.38	12710.10
892.55	12690.93
892.73	12812.42
892.90	12684.38
893.08	12753.77
893.25	12662.18
893.43	12769.90
893.60	12621.55
893.78	12687.17
893.96	12678.56
894.13	12734.02
894.31	12789.65
894.48	12725.59
894.66	12755.40
894.83	12790.30
895.01	12808.98
895.18	12844.29
895.36	12806.44
895.53	12845.43
895.71	12796.28
895.89	12852.89
896.06	12734.68
896.24	12814.88
896.41	12766.96
896.59	12801.61
896.76	12569.12
896.94	12652.76
897.11	12638.26
897.29	12676.93
897.46	12560.93
897.64	12594.93
897.81	12621.47
897.99	12520.54
898.16	12662.26
898.34	12652.35
898.51	12610.65
898.69	12584.85
898.86	12654.48
899.04	12697.98
899.21	12657.68
899.39	12776.62
899.56	12705.76
899.74	12853.79
899.91	12704.12
900.09	12645.55
900.26	12644.73
900.44	12509.40
900.61	12543.40
900.79	12653.99
900.96	12517.51
901.14	12555.69
901.31	12462.38
901.49	12463.86
901.66	12477.29
901.84	12504.16
902.01	12380.38
902.19	12447.47
902.36	12415.61
902.54	12371.12
902.71	12386.93
902.88	12449.68
903.06	12220.56
903.23	12452.22
903.41	12375.88
903.58	12324.51
903.76	12280.19
903.93	12403.89
904.11	12472.29
904.28	12344.75
904.45	12345.73
904.63	12270.69
904.80	12209.42
904.98	12289.12
905.15	12148.63
905.33	12253.00
905.50	12152.24
905.68	12166.57
905.85	12073.27
906.02	12064.99
906.20	12149.78
906.37	12011.99
906.55	12007.57
906.72	12106.77
906.90	12002.57
907.07	11988.56
907.24	12005.77
907.42	11922.70
907.59	11918.36
907.77	11907.05
907.94	11866.26
908.11	11898.21
908.29	11947.19
908.46	11870.11
908.64	11826.77
908.81	11938.92
908.98	11813.18
909.16	11976.03
909.33	11857.00
909.51	11868.96
909.68	11830.05
909.85	11882.07
910.03	11866.67
910.20	11844.96
910.37	11844.71
910.55	11821.61
910.72	11762.14
910.90	11692.92
911.07	11706.27
911.24	11615.01
911.42	11715.94
911.59	11545.55
911.76	11538.17
911.94	11465.02
912.11	11444.87
912.29	11479.19
912.46	11373.27
912.63	11409.40
912.81	11291.60
912.98	11369.50
913.15	11223.36
913.33	11299.95
913.50	11245.97
913.67	11258.91
913.85	11209.27
914.02	11227.62
914.19	11182.89
914.37	11106.22
914.54	11157.91
914.71	11147.91
914.89	11137.84
915.06	11105.40
915.23	11119.08
915.41	11047.07
915.58	10967.28
915.75	10966.54
915.93	10955.08
916.10	10904.04
916.27	10879.47
916.45	10841.37
916.62	10707.93
916.79	10769.20
916.97	10648.37
917.14	10641.25
917.31	10590.95
917.49	10679.26
917.66	10679.01
917.83	10658.61
918.00	10638.46
918.18	10640.92
918.35	10622.81
918.52	10678.52
918.70	10587.67
918.87	10598.73
919.04	10614.05
919.21	10589.96
919.39	10458.40
919.56	10549.01
919.73	10442.26
919.91	10398.11
920.08	10367.56
920.25	10261.14
920.42	10360.92
920.60	10234.27
920.77	10188.23
920.94	10281.79
921.11	10175.29
921.29	10271.38
921.46	10133.27
921.63	10247.71
921.81	10148.26
921.98	10136.87
922.15	10089.52
922.32	10125.57
922.50	10061.26
922.67	10060.93
922.84	10036.28
923.01	9975.41
923.19	9948.95
923.36	9939.53
923.53	9835.08
923.70	9905.78
923.87	9866.05
924.05	9871.13
924.22	9758.82
924.39	9814.11
924.56	9705.90
924.74	9747.18
924.91	9738.34
925.08	9724.66
925.25	9699.43
925.43	9716.55
925.60	9677.80
925.77	9788.96
925.94	9656.83
926.11	9654.86
926.29	9548.53
926.46	9615.05
926.63	9573.52
926.80	9579.09
926.97	9510.85
927.15	9553.94
927.32	9514.78
927.49	9481.52
927.66	9484.14
927.83	9532.56
928.01	9416.23
928.18	9428.19
928.35	9285.90
928.52	9428.85
928.69	9256.08
928.87	9319.32
929.04	9274.76
929.21	9291.72
929.38	9168.67
929.55	9232.00
929.72	9144.02
929.90	9181.13
930.07	9183.34
930.24	9106.91
930.41	9098.31
930.58	9054.89
930.75	9080.69
930.93	9021.14
931.10	8935.78
931.27	8900.47
931.44	8895.39
931.61	8830.27
931.78	8870.08
931.95	8821.91
932.13	8742.78
932.30	8862.95
932.47	8756.54
932.64	8832.32
932.81	8768.83
932.98	8791.93
933.15	8776.37
933.33	8681.09
933.50	8760.31
933.67	8694.20
933.84	8684.37
934.01	8676.59
934.18	8642.67
934.35	8599.50
934.52	8565.42
934.70	8563.95
934.87	8522.99
935.04	8519.22
935.21	8496.04
935.38	8446.97
935.55	8406.58
935.72	8463.76
935.89	8384.71
936.06	8406.58
936.24	8330.32
936.41	8427.56
936.58	8323.68
936.75	8317.21
936.92	8348.26
937.09	8317.95
937.26	8253.64
937.43	8310.58
937.60	8277.89
937.77	8308.04
937.94	8310.25
938.12	8303.61
938.29	8281.90
938.46	8299.93
938.63	8218.42
938.80	8263.64
938.97	8193.10
939.14	8196.30
939.31	8170.99
939.48	8194.82
939.65	8114.05
939.82	8105.53
939.99	8036.48
940.16	8031.56
940.33	8009.20
940.50	8014.60
940.67	7974.30
940.85	8008.05
941.02	7938.09
941.19	7983.31
941.36	7952.10
941.53	7998.06
941.70	7994.94
941.87	7922.85
942.04	7965.86
942.21	7964.63
942.38	7963.16
942.55	7878.21
942.72	7909.91
942.89	7886.32
943.06	7807.92
943.23	7804.81
943.40	7752.30
943.57	7780.23
943.74	7746.48
943.91	7782.36
944.08	7728.54
944.25	7760.41
944.42	7662.11
944.59	7630.24
944.76	7658.91
944.93	7624.51
945.10	7611.64
945.27	7606.32
945.44	7531.45
945.61	7533.49
945.78	7465.01
945.95	7461.49
946.12	7408.24
946.29	7477.38
946.46	7452.64
946.63	7398.41
946.80	7412.66
946.97	7383.09
947.14	7336.97
947.31	7424.46
947.48	7364.82
947.65	7364.74
947.82	7346.39
947.99	7390.05
948.16	7309.45
948.33	7367.77
948.50	7273.32
948.67	7329.02
948.84	7281.02
949.01	7229.33
949.18	7246.86
949.35	7255.05
949.52	7193.70
949.68	7225.07
949.85	7221.38
950.02	7192.88
950.19	7178.21
950.36	7147.74
950.53	7137.42
950.70	7113.25
950.87	7082.04
951.04	7152.98
951.21	7047.06
951.38	7036.90
951.55	7065.08
951.72	7062.22
951.89	7006.76
952.06	7043.13
952.23	7003.15
952.39	6970.88
952.56	6944.50
952.73	6988.57
952.90	6900.26
953.07	6970.06
953.24	6905.34
953.41	6937.54
953.58	6886.83
953.75	6901.82
953.92	6872.49
954.09	6886.99
954.25	6830.63
954.42	6834.07
954.59	6810.89
954.76	6807.78
954.93	6797.95
955.10	6769.36
955.27	6747.07
955.44	6720.53
955.61	6714.72
955.77	6767.47
955.94	6719.22
956.11	6665.73
956.28	6682.93
956.45	6656.23
956.62	6666.22
956.79	6648.69
956.96	6623.95
957.12	6629.93
957.29	6597.74
957.46	6613.22
957.63	6546.95
957.80	6548.75
957.97	6558.50
958.14	6644.35
958.30	6525.89
958.47	6558.99
958.64	6534.41
958.81	6594.71
958.98	6538.18
959.15	6530.15
959.32	6561.12
959.48	6543.75
959.65	6499.76
959.82	6544.16
959.99	6452.90
960.16	6486.41
960.33	6450.77
960.49	6399.82
960.66	6355.91
960.83	6350.26
961.00	6332.65
961.17	6326.01
961.33	6297.01
961.50	6326.26
961.67	6256.46
961.84	6299.96
962.01	6245.90
962.18	6312.33
962.34	6238.77
962.51	6263.67
962.68	6227.95
962.85	6274.16
963.02	6201.09
963.18	6240.57
963.35	6228.53
963.52	6219.35
963.69	6221.16
963.86	6223.12
964.02	6175.69
964.19	6192.40
964.36	6152.51
964.53	6140.22
964.69	6059.53
964.86	6138.09
965.03	6075.26
965.20	6115.23
965.37	6034.87
965.53	6022.83
965.70	6013.57
965.87	6043.97
966.04	5992.60
966.20	5996.70
966.37	5969.58
966.54	5933.21
966.71	5961.23
966.87	5949.27
967.04	5956.89
967.21	5931.00
967.38	5931.82
967.54	5927.64
967.71	5882.50
967.88	5898.89
968.05	5871.28
968.21	5866.28
968.38	5833.27
968.55	5857.68
968.72	5866.28
968.88	5821.64
969.05	5854.73
969.22	5835.73
969.39	5817.30
969.55	5831.55
969.72	5779.12
969.89	5807.55
970.05	5828.52
970.22	5812.05
970.39	5773.06
970.56	5797.23
970.72	5771.09
970.89	5812.87
971.06	5738.16
971.22	5753.24
971.39	5732.18
971.56	5761.51
971.73	5699.25
971.89	5721.04
972.06	5687.54
972.23	5732.67
972.39	5643.55
972.56	5700.23
972.73	5640.76
972.89	5637.24
973.06	5649.85
973.23	5612.99
973.39	5595.95
973.56	5591.86
973.73	5586.61
973.89	5639.45
974.06	5583.01
974.23	5601.77
974.39	5570.64
974.56	5544.26
974.73	5527.30
974.89	5522.96
975.06	5518.95
975.23	5541.89
975.39	5474.22
975.56	5499.04
975.73	5477.17
975.89	5462.18
976.06	5455.95
976.23	5434.24
976.39	5418.43
976.56	5421.63
976.73	5429.33
976.89	5417.37
977.06	5399.92
977.23	5393.37
977.39	5383.37
977.56	5415.40
977.72	5338.64
977.89	5377.06
978.06	5343.72
978.22	5335.78
978.39	5337.58
978.56	5355.19
978.72	5318.74
978.89	5343.89
979.05	5316.61
979.22	5322.51
979.39	5296.37
979.55	5313.50
979.72	5266.72
979.88	5294.57
980.05	5268.03
980.22	5290.07
980.38	5233.13
980.55	5234.20
980.71	5200.12
980.88	5223.55
981.05	5227.32
981.21	5170.14
981.38	5155.64
981.54	5189.31
981.71	5140.65
981.88	5167.35
982.04	5125.82
982.21	5124.67
982.37	5130.57
982.54	5129.18
982.70	5123.28
982.87	5150.23
983.04	5097.80
983.20	5170.71
983.37	5071.18
983.53	5113.53
983.70	5074.46
983.86	5086.74
984.03	5003.60
984.20	5032.02
984.36	5002.94
984.53	5053.16
984.69	4998.19
984.86	5025.22
985.02	4975.01
985.19	5008.68
985.35	4993.77
985.52	4997.29
985.68	4989.92
985.85	4990.57
986.02	4990.08
986.18	4990.24
986.35	4999.58
986.51	5007.37
986.68	4965.34
986.84	4971.08
987.01	4954.53
987.17	4966.41
987.34	4959.61
987.50	4922.33
987.67	4895.96
987.83	4932.98
988.00	4917.17
988.16	4903.90
988.33	4895.71
988.49	4902.35
988.66	4884.32
988.82	4870.40
988.99	4872.20
989.15	4874.66
989.32	4825.92
989.48	4831.65
989.65	4803.55
989.81	4792.74
989.98	4773.08
990.14	4773.65
990.31	4777.17
990.47	4772.09
990.64	4744.16
990.80	4763.00
990.97	4710.00
991.13	4734.00
991.30	4725.73
991.46	4739.41
991.63	4710.25
991.79	4742.69
991.95	4681.90
992.12	4726.47
992.28	4711.23
992.45	4713.85
992.61	4702.63
992.78	4700.17
992.94	4681.57
993.11	4711.88
993.27	4689.03
993.44	4673.87
993.60	4669.61
993.76	4685.83
993.93	4649.22
994.09	4699.84
994.26	4651.84
994.42	4643.56
994.59	4618.74
994.75	4662.65
994.91	4624.72
995.08	4594.58
995.24	4591.22
995.41	4587.86
995.57	4571.72
995.74	4540.92
995.90	4560.09
996.06	4544.52
996.23	4549.19
996.39	4525.93
996.56	4502.25
996.72	4540.02
996.88	4512.08
997.05	4548.78
997.21	4527.49
997.38	4536.91
997.54	4485.13
997.70	4518.06
997.87	4519.05
998.03	4494.47
998.20	4476.70
998.36	4502.09
998.52	4456.22
998.69	4494.96
998.85	4457.04
999.02	4482.27
999.18	4438.11
999.34	4451.96
999.51	4456.95
999.67	4474.73
999.83	4458.26
1000.00	4448.93
1000.16	4414.44
1000.33	4429.84
1000.49	4397.81
1000.65	4430.49
1000.82	4443.03
1000.98	4416.16
1001.14	4371.59
1001.31	4394.20
1001.47	4396.91
1001.63	4385.77
1001.80	4381.75
1001.96	4353.57
1002.12	4351.44
1002.29	4364.71
1002.45	4353.16
1002.61	4360.86
1002.78	4353.33
1002.94	4341.69
1003.10	4315.40
1003.27	4352.26
1003.43	4302.45
1003.59	4321.87
1003.76	4333.50
1003.92	4295.08
1004.08	4288.61
1004.25	4301.23
1004.41	4272.96
1004.57	4254.53
1004.74	4253.79
1004.90	4288.77
1005.06	4252.16
1005.23	4256.91
1005.39	4252.89
1005.55	4228.89
1005.71	4224.14
1005.88	4242.74
1006.04	4235.28
1006.20	4233.97
1006.37	4195.63
1006.53	4229.63
1006.69	4207.10
1006.85	4222.17
1007.02	4187.44
1007.18	4216.77
1007.34	4170.89
1007.51	4210.95
1007.67	4178.02
1007.83	4169.34
1007.99	4148.37
1008.16	4146.89
1008.32	4137.31
1008.48	4189.24
1008.64	4142.22
1008.81	4166.22
1008.97	4120.51
1009.13	4122.81
1009.29	4134.93
1009.46	4106.42
1009.62	4119.04
1009.78	4082.50
1009.95	4116.99
1010.11	4097.33
1010.27	4109.70
1010.43	4086.27
1010.59	4112.40
1010.76	4114.45
1010.92	4077.42
1011.08	4080.13
1011.24	4068.66
1011.41	4099.13
1011.57	4057.44
1011.73	4069.89
1011.89	4038.68
1012.06	4042.61
1012.22	4030.32
1012.38	4073.41
1012.54	4025.73
1012.70	4051.46
1012.87	4007.14
1013.03	4053.34
1013.19	4026.47
1013.35	4046.13
1013.51	4001.32
1013.68	4014.43
1013.84	4012.71
1014.00	3999.85
1014.16	3966.51
1014.32	3976.17
1014.49	3963.23
1014.65	4005.83
1014.81	3926.12
1014.97	3984.94
1015.13	3953.81
1015.30	3982.48
1015.46	3966.34
1015.62	3966.26
1015.78	3956.43
1015.94	3952.58
1016.10	3918.34
1016.27	3924.07
1016.43	3931.36
1016.59	3917.11
1016.75	3927.10
1016.91	3922.43
1017.07	3908.75
1017.24	3930.54
1017.40	3878.85
1017.56	3911.29
1017.72	3902.69
1017.88	3908.84
1018.04	3886.14
1018.21	3900.97
1018.37	3894.50
1018.53	3903.84
1018.69	3897.12
1018.85	3890.32
1019.01	3879.75
1019.17	3879.84
1019.34	3870.50
1019.50	3876.40
1019.66	3840.76
1019.82	3865.01
1019.98	3844.69
1020.14	3878.28
1020.30	3850.43
1020.46	3868.45
1020.63	3836.75
1020.79	3822.66
1020.95	3839.37
1021.11	3813.07
1021.27	3798.74
1021.43	3821.18
1021.59	3811.76
1021.75	3793.08
1021.91	3764.25
1022.07	3793.33
1022.24	3770.97
1022.40	3796.36
1022.56	3760.73
1022.72	3806.85
1022.88	3769.90
1023.04	3791.94
1023.20	3759.33
1023.36	3779.32
1023.52	3798.33
1023.68	3783.01
1023.84	3740.57
1024.01	3779.57
1024.17	3761.30
1024.33	3761.95
1024.49	3733.77
1024.65	3762.12
1024.81	3744.51
1024.97	3737.95
1025.13	3741.07
1025.29	3749.34
1025.45	3726.07
1025.61	3752.45
1025.77	3724.35
1025.93	3748.77
1026.09	3750.57
1026.25	3742.87
1026.41	3726.24
1026.57	3725.58
1026.73	3709.61
1026.90	3728.20
1027.06	3709.28
1027.22	3730.99
1027.38	3707.56
1027.54	3712.64
1027.70	3717.39
1027.86	3718.21
1028.02	3703.14
1028.18	3708.30
1028.34	3693.80
1028.50	3702.97
1028.66	3698.88
1028.82	3703.79
1028.98	3664.96
1029.14	3673.65
1029.30	3656.77
1029.46	3659.06
1029.62	3674.63
1029.78	3630.80
1029.94	3652.35
1030.10	3659.88
1030.26	3620.32
1030.42	3664.06
1030.58	3641.04
1030.74	3659.72
1030.90	3621.46
1031.06	3653.82
1031.22	3632.93
1031.38	3628.84
1031.54	3622.77
1031.70	3620.89
1031.86	3631.79
1032.02	3611.14
1032.18	3585.83
1032.34	3609.83
1032.50	3579.19
1032.66	3617.20
1032.82	3576.57
1032.98	3589.52
1033.14	3592.46
1033.30	3597.46
1033.45	3586.40
1033.61	3587.71
1033.77	3574.77
1033.93	3602.70
1034.09	3568.54
1034.25	3588.61
1034.41	3565.27
1034.57	3594.10
1034.73	3565.51
1034.89	3575.75
1035.05	3587.63
1035.21	3569.28
1035.37	3565.27
1035.53	3557.57
1035.69	3552.65
1035.85	3579.03
1036.01	3546.92
1036.16	3573.05
1036.32	3568.05
1036.48	3539.55
1036.64	3528.90
1036.80	3558.14
1036.96	3528.40
1037.12	3518.74
1037.28	3524.72
1037.44	3518.49
1037.60	3509.89
1037.76	3498.01
1037.91	3511.45
1038.07	3525.13
1038.23	3526.27
1038.39	3513.99
1038.55	3520.13
1038.71	3511.69
1038.87	3492.85
1039.03	3513.58
1039.19	3485.40
1039.35	3500.55
1039.50	3502.85
1039.66	3503.42
1039.82	3482.20
1039.98	3515.30
1040.14	3473.76
1040.30	3499.65
1040.46	3487.28
1040.62	3471.55
1040.77	3503.66
1040.93	3522.26
1041.09	3472.54
1041.25	3493.18
1041.41	3483.84
1041.57	3476.63
1041.73	3476.63
1041.88	3476.63

