SpectraSuite Data File
++++++++++++++++++++++++++++++++++++
Date: Tue Sep 20 12:17:10 EDT 2022
User: Laboratoire
Dark Spectrum Present: No
Reference Spectrum Present: No
Number of Sampled Component Spectra: 1
Spectrometers: FLMT00174
Integration Time (usec): 15000 (FLMT00174)
Spectra Averaged: 25 (FLMT00174)
Boxcar Smoothing: 0 (FLMT00174)
Correct for Electrical Dark: No (FLMT00174)
Strobe/Lamp Enabled: No (FLMT00174)
Correct for Detector Non-linearity: No (FLMT00174)
Correct for Stray Light: No (FLMT00174)
Number of Pixels in Processed Spectrum: 3648
>>>>>Begin Processed Spectral Data<<<<<
345.74	3163.46
345.96	3163.46
346.18	3163.46
346.39	3177.38
346.61	3230.14
346.83	3227.19
347.05	3242.43
347.27	3231.45
347.49	3228.83
347.71	3227.43
347.93	3238.25
348.15	3242.67
348.36	3222.03
348.58	3231.04
348.80	3219.24
349.02	3231.37
349.24	3232.68
349.46	3278.55
349.68	3290.84
349.90	3299.11
350.11	3283.47
350.33	3312.63
350.55	3280.35
350.77	3297.39
350.99	3292.48
351.21	3286.66
351.43	3272.65
351.65	3294.28
351.86	3283.63
352.08	3298.21
352.30	3281.50
352.52	3308.78
352.74	3279.45
352.96	3288.96
353.18	3304.44
353.39	3294.44
353.61	3289.04
353.83	3301.65
354.05	3319.18
354.27	3291.50
354.49	3304.44
354.70	3303.37
354.92	3289.69
355.14	3285.60
355.36	3294.53
355.58	3299.69
355.80	3274.95
356.02	3327.79
356.23	3287.07
356.45	3290.51
356.67	3282.07
356.89	3294.61
357.11	3291.33
357.33	3303.70
357.54	3280.44
357.76	3303.70
357.98	3276.18
358.20	3324.84
358.42	3286.66
358.63	3305.59
358.85	3312.30
359.07	3314.60
359.29	3281.34
359.51	3297.31
359.73	3281.34
359.94	3290.35
360.16	3282.16
360.38	3294.28
360.60	3292.97
360.82	3322.46
361.03	3300.67
361.25	3309.19
361.47	3306.73
361.69	3319.51
361.91	3307.72
362.12	3307.06
362.34	3313.86
362.56	3305.67
362.78	3303.62
363.00	3310.50
363.21	3303.62
363.43	3312.71
363.65	3292.56
363.87	3308.94
364.09	3313.29
364.30	3290.76
364.52	3309.03
364.74	3316.23
364.96	3302.55
365.17	3310.50
365.39	3277.57
365.61	3290.02
365.83	3305.59
366.05	3319.51
366.26	3306.40
366.48	3319.18
366.70	3319.84
366.92	3315.09
367.13	3311.73
367.35	3299.11
367.57	3304.27
367.79	3312.71
368.01	3323.36
368.22	3314.68
368.44	3320.25
368.66	3313.20
368.88	3319.92
369.09	3304.11
369.31	3314.68
369.53	3313.61
369.75	3311.81
369.96	3326.23
370.18	3304.60
370.40	3311.40
370.62	3306.08
370.83	3300.01
371.05	3335.08
371.27	3317.22
371.49	3296.57
371.70	3328.52
371.92	3295.67
372.14	3326.31
372.36	3294.44
372.57	3338.03
372.79	3314.43
373.01	3318.94
373.22	3318.20
373.44	3326.72
373.66	3328.85
373.88	3330.08
374.09	3313.45
374.31	3307.47
374.53	3309.03
374.75	3333.19
374.96	3326.72
375.18	3338.60
375.40	3320.49
375.61	3327.87
375.83	3291.41
376.05	3329.51
376.27	3332.62
376.48	3301.00
376.70	3317.46
376.92	3323.03
377.13	3323.12
377.35	3319.76
377.57	3329.10
377.79	3320.58
378.00	3330.32
378.22	3325.08
378.44	3327.95
378.65	3344.01
378.87	3337.53
379.09	3330.57
379.30	3316.97
379.52	3348.59
379.74	3331.39
379.96	3340.73
380.17	3321.40
380.39	3337.21
380.61	3334.42
380.82	3324.26
381.04	3330.16
381.26	3349.25
381.47	3341.22
381.69	3357.60
381.91	3350.15
382.12	3336.55
382.34	3376.69
382.56	3359.41
382.77	3345.48
382.99	3364.48
383.21	3351.79
383.42	3374.32
383.64	3347.53
383.86	3358.67
384.07	3370.47
384.29	3377.92
384.51	3349.99
384.72	3357.52
384.94	3356.38
385.16	3366.94
385.37	3373.82
385.59	3374.81
385.81	3376.04
386.02	3362.68
386.24	3381.36
386.46	3357.77
386.67	3379.23
386.89	3402.33
387.11	3401.18
387.32	3389.72
387.54	3380.54
387.76	3390.54
387.97	3414.13
388.19	3394.06
388.40	3403.64
388.62	3384.56
388.84	3398.73
389.05	3398.89
389.27	3407.16
389.49	3422.07
389.70	3386.44
389.92	3403.31
390.14	3402.66
390.35	3421.50
390.57	3418.39
390.78	3412.90
391.00	3409.79
391.22	3424.61
391.43	3411.75
391.65	3420.76
391.86	3440.26
392.08	3438.46
392.30	3415.85
392.51	3428.14
392.73	3477.45
392.95	3438.38
393.16	3414.70
393.38	3455.58
393.59	3443.13
393.81	3464.02
394.03	3462.05
394.24	3455.58
394.46	3474.34
394.67	3466.72
394.89	3456.07
395.11	3494.49
395.32	3499.73
395.54	3480.32
395.75	3473.93
395.97	3486.63
396.19	3481.87
396.40	3492.69
396.62	3491.30
396.83	3497.77
397.05	3510.55
397.26	3503.66
397.48	3517.59
397.70	3493.59
397.91	3517.43
398.13	3513.25
398.34	3526.11
398.56	3532.01
398.78	3525.70
398.99	3561.99
399.21	3532.17
399.42	3547.33
399.64	3511.04
399.85	3531.19
400.07	3538.32
400.29	3584.93
400.50	3566.82
400.72	3562.81
400.93	3544.38
401.15	3560.43
401.36	3572.56
401.58	3583.45
401.79	3575.92
402.01	3601.89
402.23	3569.20
402.44	3624.66
402.66	3598.36
402.87	3620.40
403.09	3610.41
403.30	3613.76
403.52	3619.01
403.73	3603.61
403.95	3609.34
404.16	3617.04
404.38	3641.62
404.60	3614.42
404.81	3654.23
405.03	3653.41
405.24	3654.15
405.46	3657.10
405.67	3668.57
405.89	3674.22
406.10	3671.68
406.32	3683.31
406.53	3687.57
406.75	3701.91
406.96	3696.67
407.18	3689.37
407.39	3717.23
407.61	3709.85
407.82	3726.16
408.04	3744.34
408.25	3728.20
408.47	3731.81
408.68	3741.56
408.90	3723.70
409.12	3763.68
409.33	3764.66
409.55	3741.39
409.76	3749.26
409.98	3758.68
410.19	3778.17
410.41	3790.46
410.62	3803.73
410.84	3787.10
411.05	3803.98
411.27	3805.70
411.48	3817.66
411.70	3842.89
411.91	3839.53
412.12	3844.37
412.34	3852.07
412.55	3837.48
412.77	3830.60
412.98	3851.16
413.20	3866.65
413.41	3865.75
413.63	3878.77
413.84	3855.83
414.06	3909.98
414.27	3900.64
414.49	3898.02
414.70	3902.69
414.92	3935.62
415.13	3895.65
415.35	3928.00
415.56	3945.94
415.78	3937.10
415.99	3946.19
416.21	3965.28
416.42	3972.32
416.63	3971.50
416.85	3967.33
417.06	3987.48
417.28	3974.29
417.49	4007.79
417.71	4021.15
417.92	3990.92
418.14	4021.47
418.35	4043.26
418.57	4036.79
418.78	4057.76
418.99	4027.86
419.21	4058.01
419.42	4051.62
419.64	4064.23
419.85	4071.12
420.07	4105.19
420.28	4109.54
420.50	4087.09
420.71	4100.85
420.92	4095.61
421.14	4143.45
421.35	4128.30
421.57	4141.57
421.78	4150.74
422.00	4150.17
422.21	4168.35
422.42	4171.55
422.64	4161.55
422.85	4202.02
423.07	4223.08
423.28	4205.71
423.50	4224.80
423.71	4258.96
423.92	4268.70
424.14	4234.46
424.35	4251.91
424.57	4273.70
424.78	4303.52
424.99	4285.09
425.21	4307.53
425.42	4319.99
425.64	4309.09
425.85	4330.88
426.06	4332.76
426.28	4331.45
426.49	4389.78
426.71	4360.94
426.92	4390.44
427.13	4414.44
427.35	4435.16
427.56	4439.91
427.78	4428.45
427.99	4441.72
428.20	4470.14
428.42	4504.22
428.63	4480.22
428.84	4438.03
429.06	4495.54
429.27	4512.82
429.49	4546.57
429.70	4552.63
429.91	4555.26
430.13	4555.42
430.34	4588.19
430.56	4583.27
430.77	4625.46
430.98	4592.61
431.20	4625.71
431.41	4658.72
431.62	4664.13
431.84	4643.73
432.05	4689.03
432.26	4688.05
432.48	4664.86
432.69	4727.04
432.91	4723.68
433.12	4716.14
433.33	4751.94
433.55	4811.58
433.76	4788.31
433.97	4764.07
434.19	4786.27
434.40	4839.02
434.61	4813.55
434.83	4840.74
435.04	4841.23
435.25	4887.11
435.47	4890.80
435.68	4852.21
435.89	4924.79
436.11	4923.64
436.32	4937.32
436.53	4928.23
436.75	4943.80
436.96	4951.66
437.17	4958.38
437.39	4947.73
437.60	5006.79
437.81	5016.87
438.03	5059.14
438.24	5029.73
438.45	5078.55
438.67	5052.58
438.88	5123.12
439.09	5135.24
439.31	5152.03
439.52	5155.07
439.73	5147.69
439.94	5102.88
440.16	5184.56
440.37	5149.25
440.58	5225.43
440.80	5241.24
441.01	5178.99
441.22	5309.32
441.44	5287.86
441.65	5264.02
441.86	5294.41
442.08	5315.87
442.29	5305.96
442.50	5348.48
442.71	5351.75
442.93	5362.57
443.14	5376.25
443.35	5387.47
443.57	5370.76
443.78	5406.97
443.99	5469.22
444.20	5416.63
444.42	5472.99
444.63	5464.96
444.84	5504.94
445.06	5538.28
445.27	5509.69
445.48	5512.97
445.69	5529.11
445.91	5535.74
446.12	5544.83
446.33	5545.74
446.54	5673.53
446.76	5595.87
446.97	5621.26
447.18	5612.42
447.39	5658.29
447.61	5684.26
447.82	5727.68
448.03	5694.66
448.25	5721.37
448.46	5777.48
448.67	5818.52
448.88	5733.00
449.10	5834.09
449.31	5857.19
449.52	5825.41
449.73	5861.37
449.95	5912.40
450.16	5875.70
450.37	5945.17
450.58	6067.89
450.79	5909.70
451.01	5965.73
451.22	5975.32
451.43	6003.91
451.64	6039.54
451.86	6041.18
452.07	6078.21
452.28	6101.23
452.49	6166.27
452.71	6085.74
452.92	6090.74
453.13	6164.71
453.34	6205.02
453.55	6252.53
453.77	6281.28
453.98	6270.39
454.19	6249.09
454.40	6320.93
454.62	6362.47
454.83	6277.76
455.04	6417.92
455.25	6355.58
455.46	6518.36
455.68	6445.29
455.89	6463.39
456.10	6462.57
456.31	6492.31
456.52	6534.49
456.74	6515.41
456.95	6655.49
457.16	6620.76
457.37	6701.45
457.58	6704.23
457.80	6643.86
458.01	6667.69
458.22	6902.23
458.43	6756.09
458.64	6830.88
458.86	6753.38
459.07	6832.84
459.28	6849.06
459.49	6891.17
459.70	7032.07
459.91	6992.09
460.13	6966.62
460.34	7042.55
460.55	6990.62
460.76	7114.40
460.97	7132.50
461.19	7117.76
461.40	7277.25
461.61	7184.44
461.82	7259.07
462.03	7284.62
462.24	7264.15
462.46	7256.36
462.67	7290.44
462.88	7358.35
463.09	7362.20
463.30	7470.33
463.51	7426.67
463.72	7555.28
463.94	7563.07
464.15	7599.60
464.36	7503.92
464.57	7728.87
464.78	7731.25
464.99	7730.02
465.20	7699.54
465.42	7859.28
465.63	7855.03
465.84	7842.25
466.05	7911.39
466.26	7994.94
466.47	8030.58
466.68	7982.33
466.90	8084.81
467.11	8090.87
467.32	8174.43
467.53	8253.31
467.74	8117.98
467.95	8221.37
468.16	8318.03
468.37	8390.20
468.59	8391.76
468.80	8547.81
469.01	8436.89
469.22	8574.76
469.43	8705.10
469.64	8645.70
469.85	8731.56
470.06	8761.62
470.28	8832.81
470.49	8758.59
470.70	8889.33
470.91	9053.82
471.12	8940.37
471.33	9171.95
471.54	9071.93
471.75	9103.47
471.96	9315.72
472.17	9272.47
472.39	9462.68
472.60	9314.24
472.81	9555.00
473.02	9483.49
473.23	9661.50
473.44	9712.86
473.65	9686.56
473.86	9768.97
474.07	9828.28
474.28	9890.13
474.49	10096.49
474.71	10052.09
474.92	10178.40
475.13	10125.81
475.34	10204.70
475.55	10251.80
475.76	10330.36
475.97	10573.58
476.18	10505.34
476.39	10653.12
476.60	10737.66
476.81	10787.88
477.02	10918.38
477.23	10924.19
477.44	10930.01
477.65	11079.51
477.87	11205.26
478.08	11259.16
478.29	11317.98
478.50	11498.93
478.71	11499.18
478.92	11617.31
479.13	11643.44
479.34	11738.96
479.55	11862.41
479.76	11791.88
479.97	11910.90
480.18	12154.45
480.39	11990.86
480.60	12303.13
480.81	12303.62
481.02	12374.48
481.23	12384.89
481.44	12610.49
481.65	12739.84
481.86	12873.29
482.07	12634.90
482.28	13176.55
482.49	13033.19
482.71	13091.93
482.92	13219.31
483.13	13381.02
483.34	13346.37
483.55	13428.94
483.76	13438.12
483.97	13689.69
484.18	13705.01
484.39	13876.54
484.60	13801.75
484.81	14028.01
485.02	14026.54
485.23	14194.06
485.44	14262.46
485.65	14386.98
485.86	14352.33
486.07	14617.42
486.28	14601.53
486.49	14742.26
486.70	14844.66
486.91	14977.94
487.12	14922.97
487.33	14943.21
487.54	15266.87
487.75	15352.72
487.96	15386.96
488.17	15344.77
488.38	15554.16
488.59	15586.76
488.80	15634.85
489.01	15713.16
489.22	15946.30
489.43	15982.92
489.64	15944.91
489.85	16258.00
490.06	15987.10
490.26	16276.93
490.47	16247.11
490.68	16513.26
490.89	16644.66
491.10	16471.57
491.31	16690.45
491.52	16883.54
491.73	16863.47
491.94	16911.22
492.15	17134.37
492.36	17182.29
492.57	17230.38
492.78	17228.58
492.99	17358.67
493.20	17528.73
493.41	17552.48
493.62	17618.68
493.83	17594.75
494.04	17747.29
494.25	17839.36
494.46	17959.13
494.67	17851.65
494.88	18122.64
495.08	18125.59
495.29	18203.90
495.50	18410.34
495.71	18311.63
495.92	18539.77
496.13	18530.35
496.34	18510.52
496.55	18601.21
496.76	18902.26
496.97	18640.12
497.18	18937.65
497.39	18923.40
497.60	19260.98
497.81	18907.83
498.02	19216.01
498.22	19090.35
498.43	19366.41
498.64	19393.94
498.85	19447.84
499.06	19480.61
499.27	19758.15
499.48	19366.25
499.69	19734.55
499.90	19740.94
500.11	19907.24
500.32	20180.93
500.52	19925.59
500.73	20229.43
500.94	20220.33
501.15	20209.36
501.36	20309.13
501.57	20255.89
501.78	20447.00
501.99	20637.95
502.20	20556.12
502.41	20638.94
502.61	20604.20
502.82	20810.89
503.03	20664.33
503.24	21028.71
503.45	20829.64
503.66	21120.13
503.87	21107.51
504.08	21293.30
504.28	21152.40
504.49	21237.44
504.70	21332.46
504.91	21458.70
505.12	21269.22
505.33	21709.70
505.54	21664.31
505.75	21698.80
505.95	21897.78
506.16	21818.24
506.37	21764.58
506.58	22197.20
506.79	21861.74
507.00	22234.80
507.21	22044.01
507.41	22090.05
507.62	22151.65
507.83	22533.23
508.04	22248.40
508.25	22599.74
508.46	22439.18
508.67	22770.30
508.87	22589.10
509.08	22870.24
509.29	22634.48
509.50	22832.48
509.71	22932.83
509.92	22999.75
510.12	22823.55
510.33	23004.91
510.54	22925.62
510.75	23017.61
510.96	23279.10
511.17	23451.45
511.37	23409.84
511.58	23547.54
511.79	23478.08
512.00	23501.42
512.21	23733.09
512.42	23737.27
512.62	23804.52
512.83	23914.05
513.04	23743.82
513.25	24078.13
513.46	23571.96
513.66	24295.79
513.87	24072.32
514.08	24316.35
514.29	24132.61
514.50	24238.53
514.71	24422.19
514.91	24274.82
515.12	24327.82
515.33	24537.53
515.54	24492.48
515.75	24705.79
515.95	24533.03
516.16	24590.12
516.37	24871.43
516.58	24975.39
516.78	24848.82
516.99	25032.57
517.20	25061.89
517.41	25045.59
517.62	25162.82
517.82	25030.27
518.03	25393.50
518.24	25661.38
518.45	25243.02
518.66	25532.52
518.86	25331.24
519.07	25692.75
519.28	25333.37
519.49	25791.63
519.69	25820.79
519.90	25903.04
520.11	25913.60
520.32	25860.93
520.52	26083.18
520.73	25828.82
520.94	26211.21
521.15	26186.15
521.36	25931.22
521.56	26406.75
521.77	25936.13
521.98	26353.92
522.19	26115.04
522.39	26403.89
522.60	26276.67
522.81	26388.65
523.02	26330.24
523.22	26579.28
523.43	26687.49
523.64	26551.83
523.84	26637.27
524.05	26884.59
524.26	26820.61
524.47	26725.17
524.67	26866.65
524.88	26967.82
525.09	27159.75
525.30	26926.45
525.50	26993.05
525.71	27132.39
525.92	27150.82
526.13	27393.22
526.33	27264.53
526.54	27138.21
526.75	27265.92
526.95	27537.81
527.16	27083.08
527.37	27515.36
527.58	27614.24
527.78	27551.90
527.99	27788.31
528.20	27893.09
528.40	27656.75
528.61	27568.77
528.82	27949.61
529.03	27803.14
529.23	27804.78
529.44	28061.35
529.65	28006.30
529.85	28089.94
530.06	28014.74
530.27	28009.33
530.47	27891.29
530.68	28500.43
530.89	28015.15
531.09	28521.32
531.30	28373.05
531.51	28143.19
531.72	28396.40
531.92	28433.42
532.13	28615.28
532.34	28541.89
532.54	28592.10
532.75	28674.35
532.96	28619.95
533.16	28822.29
533.37	28967.94
533.58	28703.10
533.78	28973.60
533.99	28935.01
534.20	28640.11
534.40	28860.22
534.61	28966.72
534.82	29017.01
535.02	29087.14
535.23	29143.82
535.44	29246.88
535.64	29196.09
535.85	29219.03
536.06	29194.78
536.26	29203.95
536.47	29229.18
536.68	29481.98
536.88	29128.83
537.09	29590.28
537.29	29192.98
537.50	29712.67
537.71	29480.26
537.91	29602.65
538.12	29636.81
538.33	29502.46
538.53	29665.89
538.74	29745.11
538.95	29709.31
539.15	29590.77
539.36	29875.03
539.56	30051.07
539.77	29684.24
539.98	29752.56
540.18	29908.21
540.39	29750.10
540.60	29888.88
540.80	30062.22
541.01	29962.60
541.21	29888.38
541.42	30088.67
541.63	29962.93
541.83	30294.70
542.04	30107.19
542.25	30067.54
542.45	30232.03
542.66	30181.82
542.86	30312.15
543.07	29773.37
543.28	30419.54
543.48	30261.36
543.69	30646.54
543.89	30380.39
544.10	30869.93
544.31	30684.06
544.51	30500.40
544.72	30741.98
544.92	30625.49
545.13	30873.70
545.33	30769.34
545.54	30481.48
545.75	30616.81
545.95	30431.59
546.16	30430.69
546.36	30933.50
546.57	30361.22
546.78	30038.54
546.98	30429.29
547.19	30031.00
547.39	30605.66
547.60	30752.38
547.80	31038.20
548.01	31113.72
548.22	30862.97
548.42	30989.86
548.63	31074.49
548.83	30931.54
549.04	31030.25
549.24	30852.24
549.45	30991.58
549.65	31110.69
549.86	30745.75
550.07	30909.58
550.27	31181.23
550.48	31168.04
550.68	31111.43
550.89	31091.93
551.09	31286.16
551.30	31139.53
551.50	31306.81
551.71	31135.11
551.91	31117.74
552.12	31111.76
552.33	31346.62
552.53	30889.59
552.74	31459.09
552.94	31419.12
553.15	31315.82
553.35	31412.65
553.56	31167.38
553.76	31527.66
553.97	31263.06
554.17	31479.74
554.38	31904.57
554.58	31402.49
554.79	31678.39
554.99	31109.71
555.20	31228.41
555.40	31440.74
555.61	31206.13
555.81	31023.20
556.02	31630.06
556.22	31486.62
556.43	31400.93
556.63	31452.79
556.84	31521.02
557.04	31885.64
557.25	31384.06
557.45	31787.83
557.66	31718.69
557.86	31581.56
558.07	31820.60
558.27	31510.21
558.48	31450.90
558.68	31544.70
558.89	31558.13
559.09	31631.45
559.30	31482.93
559.50	31641.53
559.71	31430.18
559.91	31900.72
560.12	31755.56
560.32	31677.41
560.53	31877.62
560.73	31643.57
560.94	31855.83
561.14	31705.51
561.35	31902.27
561.55	31756.87
561.76	31890.89
561.96	31340.72
562.17	31664.05
562.37	31881.22
562.57	31623.59
562.78	31608.76
562.98	31830.10
563.19	31840.02
563.39	31922.34
563.60	31943.23
563.80	31520.70
564.01	32012.70
564.21	31885.48
564.42	31811.51
564.62	31811.02
564.82	31974.03
565.03	31707.96
565.23	31756.54
565.44	32068.24
565.64	31910.38
565.85	32110.02
566.05	32079.55
566.25	32165.32
566.46	31975.26
566.66	32047.19
566.87	31983.05
567.07	31836.00
567.28	31939.87
567.48	32159.17
567.68	31679.78
567.89	32298.60
568.09	31890.07
568.30	31854.60
568.50	31979.03
568.71	31819.78
568.91	32001.72
569.11	31737.62
569.32	31860.25
569.52	32042.19
569.73	31633.99
569.93	32082.99
570.13	31899.41
570.34	31653.98
570.54	31967.15
570.75	31763.34
570.95	31771.78
571.15	31754.25
571.36	32035.06
571.56	31806.43
571.77	31839.52
571.97	31564.28
572.17	31913.01
572.38	31741.63
572.58	31964.78
572.79	31755.64
572.99	31798.32
573.19	31884.09
573.40	31715.50
573.60	31814.38
573.81	31694.20
574.01	31727.13
574.21	31696.08
574.42	31721.32
574.62	31718.53
574.82	31957.65
575.03	31657.66
575.23	32153.52
575.43	31785.29
575.64	31811.43
575.84	32030.31
576.05	31653.00
576.25	31815.52
576.45	31791.27
576.66	32116.98
576.86	31797.01
577.06	31981.82
577.27	31820.44
577.47	31886.71
577.67	31914.32
577.88	31562.64
578.08	31820.52
578.28	31988.94
578.49	31787.75
578.69	31816.91
578.89	31740.48
579.10	31789.80
579.30	32262.96
579.50	31980.83
579.71	31814.62
579.91	32076.60
580.11	31873.52
580.32	31651.77
580.52	31645.79
580.72	31924.39
580.93	31434.68
581.13	31610.97
581.33	31918.33
581.54	31712.88
581.74	31715.34
581.94	31732.29
582.15	31982.72
582.35	31628.75
582.55	31713.53
582.76	31448.03
582.96	31842.96
583.16	31553.14
583.37	31886.79
583.57	31695.27
583.77	32084.22
583.97	31487.27
584.18	32147.29
584.38	31835.84
584.58	31558.54
584.79	31664.22
584.99	31513.08
585.19	31404.13
585.40	31484.32
585.60	31700.02
585.80	31503.66
586.00	31776.45
586.21	31704.36
586.41	31733.60
586.61	31888.51
586.82	31738.52
587.02	31600.40
587.22	31751.46
587.42	31315.82
587.63	31749.41
587.83	31315.41
588.03	31571.24
588.23	31315.00
588.44	31446.07
588.64	31155.83
588.84	31369.64
589.05	31516.44
589.25	31623.18
589.45	31518.08
589.65	31574.19
589.86	31632.43
590.06	31551.01
590.26	31372.18
590.46	31641.44
590.67	31203.26
590.87	31688.06
591.07	31647.67
591.27	31201.46
591.48	31567.39
591.68	31178.85
591.88	31877.86
592.08	31278.95
592.29	31458.52
592.49	31316.06
592.69	31453.28
592.89	31222.43
593.10	31415.27
593.30	31341.05
593.50	31862.38
593.70	31069.24
593.90	31692.73
594.11	31570.09
594.31	31583.86
594.51	31608.51
594.71	31481.38
594.92	31476.62
595.12	31207.03
595.32	31289.03
595.52	31290.67
595.72	30861.41
595.93	31455.74
596.13	31155.26
596.33	30956.52
596.53	31271.25
596.73	31131.91
596.94	31004.94
597.14	31207.28
597.34	31085.71
597.54	31375.78
597.74	31115.69
597.95	31228.90
598.15	31216.12
598.35	31252.58
598.55	31087.51
598.75	30970.20
598.96	31207.77
599.16	31058.10
599.36	31115.61
599.56	31145.92
599.76	31008.05
599.97	31339.98
600.17	31077.11
600.37	31215.71
600.57	30884.11
600.77	31441.97
600.97	31144.85
601.18	31515.86
601.38	31053.02
601.58	31137.23
601.78	30903.19
601.98	30858.55
602.18	30871.90
602.39	31161.56
602.59	30943.74
602.79	30799.57
602.99	30923.02
603.19	31029.18
603.39	30976.18
603.60	31110.20
603.80	31242.25
604.00	31074.49
604.20	31019.76
604.40	31047.62
604.60	30807.84
604.80	30829.06
605.01	30861.66
605.21	30653.83
605.41	30662.93
605.61	30672.18
605.81	30870.43
606.01	31051.06
606.21	30765.49
606.42	31040.33
606.62	30858.22
606.82	31174.34
607.02	30832.58
607.22	31050.07
607.42	31061.62
607.62	30597.39
607.82	30632.70
608.03	30733.38
608.23	30673.41
608.43	30650.39
608.63	30863.54
608.83	30618.61
609.03	30519.57
609.23	30581.74
609.43	30603.86
609.63	30500.81
609.84	30280.12
610.04	30587.40
610.24	30632.70
610.44	30597.47
610.64	30370.97
610.84	30667.92
611.04	30810.30
611.24	30587.40
611.44	30159.86
611.64	30502.94
611.85	30487.70
612.05	30580.35
612.25	30549.22
612.45	30215.65
612.65	30343.36
612.85	30253.74
613.05	30009.71
613.25	30452.72
613.45	30218.43
613.65	30264.23
613.85	29997.83
614.05	30192.38
614.25	30142.99
614.46	30026.91
614.66	29968.34
614.86	30111.04
615.06	30042.06
615.26	30189.84
615.46	29780.09
615.66	30192.30
615.86	30327.96
616.06	30030.76
616.26	30140.28
616.46	30461.73
616.66	29968.25
616.86	30260.70
617.06	29941.88
617.26	30209.91
617.46	29836.94
617.66	29691.37
617.86	29497.88
618.07	29738.23
618.27	29619.44
618.47	29689.32
618.67	29780.58
618.87	29754.12
619.07	29521.96
619.27	29602.81
619.47	29578.48
619.67	29902.97
619.87	29720.12
620.07	29967.35
620.27	29910.34
620.47	29598.56
620.67	29796.06
620.87	29737.57
621.07	29833.58
621.27	29707.51
621.47	29470.11
621.67	29662.78
621.87	29396.13
622.07	29605.27
622.27	29556.29
622.47	29499.35
622.67	29399.49
622.87	29326.50
623.07	29668.10
623.27	29785.00
623.47	29333.06
623.67	29544.65
623.87	29720.78
624.07	29521.14
624.27	29108.35
624.47	29234.43
624.67	29153.41
624.87	29236.31
625.07	29182.82
625.27	29546.70
625.47	29144.97
625.67	29167.91
625.87	29347.31
626.07	29284.72
626.27	29310.12
626.47	29246.14
626.67	29216.16
626.87	29016.77
627.07	29187.16
627.27	29175.44
627.47	29071.82
627.67	29046.42
627.87	28803.94
628.07	29011.93
628.27	28860.79
628.47	28643.38
628.67	28864.89
628.86	28827.29
629.06	28655.75
629.26	28732.51
629.46	29026.11
629.66	28744.39
629.86	28433.10
630.06	28841.63
630.26	28724.48
630.46	28962.70
630.66	28666.48
630.86	28806.48
631.06	28796.00
631.26	28846.13
631.46	29022.01
631.66	28873.00
631.86	28568.34
632.06	28719.57
632.26	28387.22
632.45	28296.29
632.65	28342.25
632.85	28523.45
633.05	28419.17
633.25	28423.76
633.45	28152.61
633.65	28217.90
633.85	28741.11
634.05	28083.71
634.25	28406.56
634.45	28311.78
634.65	28421.14
634.84	28213.88
635.04	28497.40
635.24	28337.42
635.44	28605.45
635.64	28522.72
635.84	28560.23
636.04	28467.58
636.24	28324.15
636.44	28447.27
636.64	27953.79
636.84	28525.50
637.03	27932.16
637.23	28092.32
637.43	28036.36
637.63	27978.45
637.83	28024.16
638.03	28106.41
638.23	27669.86
638.43	28067.25
638.62	28197.17
638.82	27683.87
639.02	28159.98
639.22	28049.47
639.42	28187.10
639.62	27953.95
639.82	28033.91
640.02	28094.94
640.21	28121.56
640.41	27811.83
640.61	27999.17
640.81	27989.59
641.01	27867.94
641.21	27769.80
641.41	27905.62
641.61	27647.00
641.80	27717.62
642.00	27839.35
642.20	28000.98
642.40	27605.88
642.60	27773.81
642.80	27697.06
642.99	27367.74
643.19	27610.14
643.39	27273.05
643.59	27493.82
643.79	27500.21
643.99	27664.86
644.19	27494.72
644.38	27337.02
644.58	27472.44
644.78	27516.75
644.98	27479.40
645.18	27587.37
645.38	27601.79
645.57	27344.64
645.77	27324.57
645.97	27292.62
646.17	27378.97
646.37	27361.93
646.56	27121.25
646.76	27266.82
646.96	27260.92
647.16	27267.80
647.36	27197.76
647.55	27152.63
647.75	27247.65
647.95	27181.05
648.15	27409.03
648.35	27255.76
648.55	27339.81
648.74	27176.55
648.94	27222.34
649.14	27450.73
649.34	27167.86
649.54	27270.01
649.73	27254.70
649.93	27050.80
650.13	26962.74
650.33	26957.33
650.52	27033.43
650.72	27278.29
650.92	27027.78
651.12	26875.33
651.32	26957.58
651.51	27107.65
651.71	27113.88
651.91	27167.21
652.11	27043.84
652.30	27137.55
652.50	27142.47
652.70	27025.73
652.90	26855.26
653.10	26922.11
653.29	26606.72
653.49	26942.09
653.69	26555.93
653.89	26692.41
654.08	26598.61
654.28	26906.13
654.48	26600.08
654.68	26762.20
654.87	26435.51
655.07	26432.40
655.27	26514.64
655.47	26284.29
655.66	26331.39
655.86	26200.32
656.06	26503.66
656.26	26231.94
656.45	26415.93
656.65	26537.01
656.85	26424.70
657.04	26168.86
657.24	26213.84
657.44	26165.83
657.64	26318.28
657.83	25820.13
658.03	26266.43
658.23	26144.86
658.43	26103.00
658.62	26228.66
658.82	25992.74
659.02	25979.79
659.21	25933.92
659.41	25728.96
659.61	25954.32
659.81	25855.20
660.00	25732.89
660.20	25881.98
660.40	25780.32
660.59	25963.00
660.79	25756.57
660.99	26147.89
661.19	25985.86
661.38	26032.96
661.58	25827.26
661.78	26077.03
661.97	26008.55
662.17	26311.16
662.37	25838.32
662.56	25711.76
662.76	25661.13
662.96	25698.49
663.15	25592.97
663.35	25633.03
663.55	25498.69
663.74	25311.58
663.94	25523.51
664.14	25318.87
664.33	25444.78
664.53	25363.44
664.73	25523.10
664.93	25160.93
665.12	25266.45
665.32	25238.10
665.52	25163.72
665.71	25104.82
665.91	25304.70
666.10	25201.24
666.30	25370.24
666.50	25202.22
666.69	25314.20
666.89	25570.20
667.09	25677.51
667.28	25390.14
667.48	25191.98
667.68	25194.03
667.87	25013.48
668.07	24860.29
668.27	25029.37
668.46	25126.69
668.66	24944.75
668.86	25130.21
669.05	24767.23
669.25	25015.12
669.44	24886.92
669.64	25011.19
669.84	24896.09
670.03	25160.12
670.23	24857.51
670.43	24781.57
670.62	24780.59
670.82	24733.48
671.01	24996.93
671.21	24864.22
671.41	24934.76
671.60	25041.33
671.80	25110.96
672.00	24911.66
672.19	24903.63
672.39	24866.85
672.58	24729.63
672.78	24646.08
672.98	24829.33
673.17	24757.24
673.37	24330.36
673.56	24467.90
673.76	24689.00
673.96	24846.78
674.15	24579.48
674.35	24869.63
674.54	24779.44
674.74	24737.33
674.94	24688.92
675.13	24841.37
675.33	24338.80
675.52	24573.58
675.72	24504.11
675.91	24466.02
676.11	24642.14
676.31	24495.18
676.50	24469.70
676.70	24545.15
676.89	24547.12
677.09	24632.80
677.28	24427.19
677.48	24193.97
677.68	24278.75
677.87	24159.64
678.07	24074.20
678.26	24243.85
678.46	24214.69
678.65	24242.63
678.85	24399.50
679.04	24199.54
679.24	24143.59
679.44	24053.80
679.63	23987.04
679.83	23930.27
680.02	24163.82
680.22	24112.21
680.41	24030.13
680.61	24128.76
680.80	24059.78
681.00	24342.81
681.19	24258.11
681.39	24235.91
681.59	24169.14
681.78	23945.92
681.98	24139.16
682.17	23864.90
682.37	23990.56
682.56	23890.95
682.76	24071.17
682.95	23944.03
683.15	24116.72
683.34	24097.79
683.54	24168.90
683.73	24009.57
683.93	23601.94
684.12	23777.74
684.32	23799.94
684.51	23330.95
684.71	23486.35
684.90	23490.53
685.10	23393.37
685.29	23360.52
685.49	23639.38
685.68	23669.60
685.88	23632.25
686.07	23466.20
686.27	23710.32
686.46	23559.83
686.66	23451.45
686.85	23530.01
687.05	23419.10
687.24	23391.57
687.44	23450.39
687.63	23504.87
687.83	23181.45
688.02	23429.91
688.22	23519.94
688.41	23405.09
688.61	23416.23
688.80	23451.21
689.00	23192.92
689.19	23012.37
689.39	23176.13
689.58	23171.21
689.77	23097.89
689.97	23259.03
690.16	23157.20
690.36	22953.47
690.55	23047.59
690.75	23287.86
690.94	23135.17
691.14	23041.86
691.33	22707.71
691.53	22923.41
691.72	22740.15
691.91	22687.48
692.11	22759.90
692.30	22940.69
692.50	22949.70
692.69	22798.32
692.89	22848.04
693.08	22851.81
693.28	22979.68
693.47	22950.52
693.66	22927.09
693.86	22853.77
694.05	22864.01
694.25	22769.64
694.44	22720.74
694.64	22585.41
694.83	22540.52
695.02	22583.61
695.22	22692.97
695.41	22588.77
695.61	22503.41
695.80	22468.27
695.99	22524.46
696.19	22429.76
696.38	22422.96
696.58	22202.60
696.77	22614.41
696.96	22495.30
697.16	22414.20
697.35	22381.27
697.55	22441.97
697.74	22254.95
697.93	22426.65
698.13	22160.74
698.32	22290.09
698.52	22259.78
698.71	22078.09
698.90	22438.45
699.10	22272.97
699.29	22213.09
699.49	22267.40
699.68	22102.09
699.87	22074.40
700.07	22294.43
700.26	22292.14
700.45	22327.36
700.65	22305.57
700.84	22513.16
701.04	22292.71
701.23	22443.03
701.42	22195.15
701.62	22093.32
701.81	22092.75
702.00	21925.23
702.20	21690.28
702.39	21807.51
702.58	21913.84
702.78	21843.06
702.97	21810.46
703.17	21839.78
703.36	21856.66
703.55	21741.24
703.75	21593.62
703.94	21694.05
704.13	21515.22
704.33	21595.58
704.52	21700.77
704.71	21677.67
704.91	21575.43
705.10	21555.61
705.29	21494.42
705.49	21510.23
705.68	21541.85
705.87	21521.86
706.07	21321.48
706.26	21548.97
706.45	21325.42
706.65	21330.00
706.84	21567.00
707.03	21704.78
707.23	21286.91
707.42	21239.07
707.61	21465.66
707.80	21199.67
708.00	21285.03
708.19	21199.34
708.38	21492.61
708.58	21127.66
708.77	21466.97
708.96	21113.49
709.16	21231.05
709.35	21475.66
709.54	21050.91
709.74	20963.01
709.93	20858.64
710.12	21064.67
710.31	21243.17
710.51	21017.32
710.70	20992.34
710.89	21076.71
711.09	20803.43
711.28	20881.50
711.47	20953.83
711.66	20961.45
711.86	20899.52
712.05	21056.15
712.24	21042.06
712.43	20957.68
712.63	20761.32
712.82	21026.17
713.01	20775.82
713.21	20667.61
713.40	20609.94
713.59	20715.61
713.78	20478.38
713.98	20659.09
714.17	20625.18
714.36	20562.59
714.55	20393.18
714.75	20551.53
714.94	20507.79
715.13	20601.25
715.32	20247.45
715.52	20396.38
715.71	20319.78
715.90	20341.00
716.09	20138.74
716.29	20385.56
716.48	20221.64
716.67	20035.69
716.86	20064.77
717.06	20050.27
717.25	20141.20
717.44	20193.46
717.63	20294.47
717.82	20030.69
718.02	20093.52
718.21	20255.39
718.40	20295.53
718.59	20244.58
718.79	20126.62
718.98	20142.43
719.17	20178.80
719.36	20192.32
719.55	19946.07
719.75	19942.79
719.94	19892.49
720.13	20016.68
720.32	20042.49
720.51	19963.68
720.71	19931.41
720.90	19736.52
721.09	19864.15
721.28	19686.88
721.47	19716.37
721.67	19591.93
721.86	19652.23
722.05	19631.42
722.24	19483.88
722.43	19649.77
722.63	19466.27
722.82	19643.13
723.01	19631.83
723.20	19592.26
723.39	19551.47
723.58	19695.23
723.78	19404.01
723.97	19653.05
724.16	19446.53
724.35	19608.73
724.54	19464.14
724.73	19575.71
724.93	19391.56
725.12	19472.99
725.31	19133.35
725.50	19209.86
725.69	19316.11
725.88	19169.72
726.08	19074.54
726.27	19352.08
726.46	19001.79
726.65	19375.26
726.84	19014.00
727.03	19130.98
727.23	19211.67
727.42	19262.05
727.61	19272.61
727.80	19193.07
727.99	19259.26
728.18	19119.67
728.37	18922.08
728.56	18764.88
728.76	18650.77
728.95	18767.67
729.14	18825.01
729.33	18902.59
729.52	18890.79
729.71	18834.76
729.90	18899.88
730.09	18797.57
730.29	19027.76
730.48	18740.47
730.67	19008.75
730.86	18791.26
731.05	18919.71
731.24	18826.81
731.43	18804.37
731.62	18620.62
731.81	18468.66
732.01	18674.44
732.20	18373.56
732.39	18498.81
732.58	18443.84
732.77	18172.45
732.96	18406.49
733.15	18562.87
733.34	18417.14
733.53	18525.60
733.72	18662.48
733.92	18617.26
734.11	18536.17
734.30	18528.55
734.49	18641.76
734.68	18483.66
734.87	18461.54
735.06	18446.71
735.25	18445.81
735.44	18396.58
735.63	18306.87
735.82	18343.33
736.01	18155.16
736.20	18152.21
736.40	18284.43
736.59	18247.24
736.78	18296.31
736.97	18071.69
737.16	18183.59
737.35	18169.01
737.54	18230.12
737.73	18119.28
737.92	18267.88
738.11	18175.56
738.30	18206.36
738.49	18163.60
738.68	18067.92
738.87	18149.67
739.06	17955.93
739.25	17969.12
739.44	17935.95
739.63	17881.31
739.82	17693.06
740.01	17888.35
740.20	17706.98
740.39	17748.68
740.59	17726.97
740.78	17798.65
740.97	17664.71
741.16	17653.08
741.35	17833.96
741.54	17770.96
741.73	17774.57
741.92	17660.78
742.11	17691.09
742.30	17619.90
742.49	17518.73
742.68	17664.22
742.87	17681.02
743.06	17544.37
743.25	17703.05
743.44	17593.03
743.63	17689.62
743.82	17580.34
744.01	17559.78
744.20	17479.09
744.39	17576.81
744.58	17488.26
744.77	17371.03
744.96	17221.86
745.15	17399.95
745.34	17202.12
745.53	17377.01
745.72	17273.14
745.91	17257.41
746.10	17248.81
746.29	17361.78
746.48	17427.89
746.67	17262.08
746.86	17249.80
747.04	17153.46
747.23	17093.74
747.42	17222.11
747.61	17080.55
747.80	17278.38
747.99	17026.48
748.18	17254.71
748.37	17149.03
748.56	16998.55
748.75	17020.83
748.94	16931.38
749.13	17008.54
749.32	16779.91
749.51	16928.02
749.70	16833.81
749.89	16749.27
750.08	16817.67
750.27	16618.94
750.46	16720.93
750.65	16862.40
750.84	16731.41
751.02	16821.11
751.21	16773.03
751.40	16867.64
751.59	16935.39
751.78	16823.16
751.97	16768.77
752.16	16649.00
752.35	16781.38
752.54	16656.29
752.73	16897.30
752.92	16793.26
753.11	16815.87
753.30	16867.56
753.49	16864.04
753.67	16748.70
753.86	16633.36
754.05	16727.81
754.24	16615.17
754.43	16659.08
754.62	16632.13
754.81	16504.99
755.00	16473.29
755.19	16417.58
755.38	16286.18
755.56	16335.83
755.75	16475.58
755.94	16328.37
756.13	16410.37
756.32	16372.77
756.51	16345.90
756.70	16418.57
756.89	16350.57
757.08	16295.20
757.26	16316.90
757.45	16463.78
757.64	16282.99
757.83	16464.03
758.02	16307.48
758.21	16249.16
758.40	16282.99
758.59	16281.19
758.77	16136.03
758.96	16221.31
759.15	16208.61
759.34	16139.06
759.53	16176.58
759.72	16138.98
759.91	16041.00
760.09	16151.02
760.28	16186.65
760.47	15993.73
760.66	16100.80
760.85	15940.57
761.04	16148.07
761.23	16006.68
761.41	16034.86
761.60	16050.50
761.79	16035.68
761.98	16019.21
762.17	16141.27
762.36	15958.02
762.54	16040.51
762.73	16047.80
762.92	15943.27
763.11	16035.35
763.30	16102.44
763.49	15964.08
763.67	15876.35
763.86	15885.68
764.05	15972.60
764.24	15930.58
764.43	15990.87
764.61	15790.41
764.80	15804.01
764.99	15925.17
765.18	15630.59
765.37	15794.18
765.55	15757.48
765.74	15729.63
765.93	15659.75
766.12	15802.86
766.31	15763.30
766.49	15856.68
766.68	15789.84
766.87	15762.56
767.06	15790.99
767.25	15793.20
767.43	15720.78
767.62	15662.21
767.81	15782.22
768.00	15615.02
768.19	15542.44
768.37	15597.99
768.56	15512.46
768.75	15491.82
768.94	15503.70
769.12	15425.30
769.31	15454.05
769.50	15413.67
769.69	15526.47
769.88	15339.53
770.06	15646.24
770.25	15518.69
770.44	15470.60
770.63	15560.79
770.81	15570.87
771.00	15573.66
771.19	15519.51
771.38	15536.30
771.56	15542.28
771.75	15394.66
771.94	15529.99
772.13	15548.26
772.31	15502.47
772.50	15686.70
772.69	15589.63
772.88	15646.97
773.06	15349.20
773.25	15396.14
773.44	15352.64
773.62	15274.32
773.81	15385.41
774.00	15281.94
774.19	15303.00
774.37	15244.51
774.56	15335.35
774.75	15085.42
774.94	15273.34
775.12	15102.05
775.31	15237.38
775.50	15301.93
775.68	15220.26
775.87	15218.21
776.06	15199.78
776.25	15302.83
776.43	15143.01
776.62	15266.79
776.81	15085.58
776.99	15195.76
777.18	15061.42
777.37	14939.36
777.55	15058.06
777.74	15024.23
777.93	15035.29
778.12	15100.49
778.30	14983.27
778.49	15056.01
778.68	15163.65
778.86	15188.56
779.05	15231.81
779.24	15254.91
779.42	15087.39
779.61	15001.37
779.80	15000.72
779.98	15025.70
780.17	15064.28
780.36	14853.84
780.54	14996.87
780.73	14795.18
780.92	14907.08
781.10	14906.92
781.29	14853.43
781.48	14831.31
781.66	14861.95
781.85	14977.37
782.04	14890.29
782.22	15020.29
782.41	14898.73
782.60	14947.47
782.78	14859.82
782.97	14941.32
783.16	14756.84
783.34	14809.44
783.53	14859.98
783.71	14822.13
783.90	14839.34
784.09	14845.89
784.27	14845.15
784.46	14805.42
784.65	14897.09
784.83	14809.52
785.02	14832.54
785.20	14907.57
785.39	14746.93
785.58	14897.99
785.76	14867.02
785.95	14799.69
786.14	14846.79
786.32	14841.63
786.51	14765.36
786.69	14830.08
786.88	14733.66
787.07	14696.72
787.25	14715.97
787.44	14814.10
787.62	14767.41
787.81	14971.55
788.00	15086.89
788.18	15149.40
788.37	15100.49
788.55	15374.18
788.74	15265.80
788.93	15389.17
789.11	15461.43
789.30	15470.19
789.48	15353.38
789.67	15368.86
789.86	15247.29
790.04	15194.78
790.23	15048.56
790.41	14946.24
790.60	15045.44
790.78	15071.25
790.97	14920.19
791.16	14990.48
791.34	15083.62
791.53	14859.57
791.71	15048.88
791.90	14885.62
792.08	14954.60
792.27	14973.68
792.46	14937.72
792.64	14977.78
792.83	14953.04
793.01	15016.20
793.20	14979.58
793.38	14985.48
793.57	14986.79
793.75	14975.08
793.94	15083.95
794.12	15230.83
794.31	15057.32
794.50	15287.76
794.68	15299.72
794.87	15325.11
795.05	15429.89
795.24	15258.27
795.42	15167.17
795.61	15391.39
795.79	15354.11
795.98	15129.33
796.16	15276.37
796.35	15325.69
796.53	15189.87
796.72	15305.29
796.90	15271.95
797.09	15234.92
797.27	15249.50
797.46	15266.21
797.64	15305.13
797.83	15311.19
798.01	15371.89
798.20	15389.99
798.38	15221.49
798.57	15407.77
798.75	15310.37
798.94	15194.37
799.12	15563.33
799.31	15396.14
799.49	15518.69
799.68	15454.96
799.86	15524.26
800.05	15461.84
800.23	15543.43
800.42	15505.17
800.60	15761.58
800.79	15591.02
800.97	15701.20
801.16	15711.03
801.34	15529.42
801.53	15524.75
801.71	15568.74
801.90	15412.93
802.08	15554.73
802.27	15395.97
802.45	15285.30
802.64	15442.50
802.82	15479.37
803.00	15319.22
803.19	15354.28
803.37	15494.19
803.56	15319.22
803.74	15334.45
803.93	15319.46
804.11	15282.76
804.30	15193.31
804.48	15341.83
804.67	15294.97
804.85	15299.88
805.03	15450.78
805.22	15342.15
805.40	15265.72
805.59	15351.08
805.77	15305.29
805.96	15158.25
806.14	15089.43
806.32	15197.98
806.51	15229.68
806.69	15125.15
806.88	15213.13
807.06	15304.39
807.25	15423.09
807.43	15465.36
807.61	15490.18
807.80	15435.29
807.98	15467.82
808.17	15384.10
808.35	15312.99
808.53	15473.71
808.72	15342.32
808.90	15323.97
809.09	15413.83
809.27	15348.13
809.45	15167.67
809.64	15192.41
809.82	15087.14
810.01	15156.28
810.19	15090.74
810.37	15087.47
810.56	15095.00
810.74	15190.36
810.93	15118.19
811.11	15192.98
811.29	15065.92
811.48	15139.98
811.66	15097.46
811.84	15067.73
812.03	15008.01
812.21	15106.23
812.40	15033.97
812.58	15135.31
812.76	14973.44
812.95	15069.61
813.13	14862.93
813.31	14995.96
813.50	15046.51
813.68	15004.65
813.86	15136.62
814.05	15201.25
814.23	15091.15
814.42	15276.37
814.60	15201.17
814.78	15192.32
814.97	15192.90
815.15	15115.65
815.33	15067.56
815.52	14913.80
815.70	14865.47
815.88	14889.88
816.07	14722.36
816.25	14850.31
816.43	14883.33
816.62	14749.96
816.80	14827.38
816.98	14771.18
817.17	14765.94
817.35	14766.43
817.53	14764.05
817.72	14788.30
817.90	14697.62
818.08	14670.42
818.26	14767.82
818.45	14643.96
818.63	14712.69
818.81	14749.55
819.00	14592.60
819.18	14789.45
819.36	14808.86
819.55	14843.43
819.73	14708.35
819.91	14845.07
820.09	14725.63
820.28	14805.91
820.46	14641.99
820.64	14917.49
820.83	14687.54
821.01	14815.74
821.19	14763.48
821.38	14789.12
821.56	14717.44
821.74	14729.73
821.92	14591.53
822.11	14605.21
822.29	14347.74
822.47	14413.69
822.65	14403.61
822.84	14532.30
823.02	14318.66
823.20	14531.32
823.39	14333.00
823.57	14446.54
823.75	14422.94
823.93	14340.37
824.12	14387.06
824.30	14352.25
824.48	14338.32
824.66	14425.24
824.85	14190.38
825.03	14359.46
825.21	14487.99
825.39	14382.64
825.58	14490.28
825.76	14425.24
825.94	14482.09
826.12	14405.90
826.31	14366.66
826.49	14442.69
826.67	14421.39
826.85	14443.83
827.03	14459.64
827.22	14533.94
827.40	14481.02
827.58	14435.64
827.76	14467.10
827.95	14438.84
828.13	14412.95
828.31	14373.87
828.49	14417.45
828.67	14390.34
828.86	14308.75
829.04	14254.03
829.22	14242.72
829.40	14176.78
829.58	14167.93
829.77	14117.55
829.95	14103.13
830.13	14093.47
830.31	14056.68
830.49	14055.21
830.68	14070.45
830.86	14016.79
831.04	13998.69
831.22	13970.10
831.40	13998.60
831.59	14147.12
831.77	14010.07
831.95	14089.94
832.13	13950.03
832.31	14033.01
832.50	13980.66
832.68	13993.03
832.86	14081.59
833.04	14204.79
833.22	14074.62
833.40	14267.87
833.59	14131.07
833.77	14220.44
833.95	13894.98
834.13	14232.48
834.31	13972.31
834.49	13978.04
834.67	13897.11
834.86	13894.32
835.04	13942.41
835.22	13910.05
835.40	13874.58
835.58	13845.74
835.76	13883.26
835.95	13868.76
836.13	13802.00
836.31	13741.05
836.49	13910.30
836.67	13912.67
836.85	13889.57
837.03	13845.09
837.21	13840.34
837.40	13793.81
837.58	13724.18
837.76	13850.17
837.94	13823.46
838.12	14014.82
838.30	13878.27
838.48	13877.36
838.66	13760.88
838.85	13688.13
839.03	13654.46
839.21	13670.60
839.39	13642.01
839.57	13746.62
839.75	13705.58
839.93	13771.44
840.11	13812.81
840.29	13744.49
840.47	13707.87
840.66	13677.07
840.84	13658.89
841.02	13565.42
841.20	13530.11
841.38	13472.28
841.56	13496.28
841.74	13557.55
841.92	13456.63
842.10	13425.50
842.28	13481.78
842.46	13429.27
842.65	13342.27
842.83	13432.14
843.01	13458.68
843.19	13323.59
843.37	13475.06
843.55	13371.52
843.73	13460.81
843.91	13509.06
844.09	13474.16
844.27	13583.03
844.45	13390.60
844.63	13399.04
844.81	13339.73
844.99	13389.21
845.17	13279.36
845.35	13333.59
845.54	13267.56
845.72	13223.73
845.90	13207.02
846.08	13173.85
846.26	13152.96
846.44	13218.90
846.62	13115.68
846.80	13185.48
846.98	13165.57
847.16	13160.41
847.34	13219.56
847.52	13173.03
847.70	13174.91
847.88	13210.46
848.06	13202.44
848.24	13288.37
848.42	13282.47
848.60	13225.04
848.78	13307.37
848.96	13318.76
849.14	13298.94
849.32	13367.09
849.50	13243.72
849.68	13324.49
849.86	13322.86
850.04	13205.47
850.22	13205.47
850.40	13092.50
850.58	13180.56
850.76	13378.89
850.94	12952.58
851.12	13100.77
851.30	13071.94
851.48	13195.23
851.66	13150.83
851.84	13130.18
852.02	13154.76
852.20	13194.24
852.38	13091.03
852.56	13127.15
852.74	13077.18
852.92	13014.68
853.10	12983.47
853.28	13066.12
853.46	12763.76
853.64	12912.52
853.82	12776.87
854.00	12801.36
854.18	12711.58
854.36	12695.44
854.54	12763.60
854.72	12671.11
854.90	12634.98
855.07	12708.87
855.25	12696.18
855.43	12739.84
855.61	12742.54
855.79	12754.50
855.97	12779.82
856.15	12722.15
856.33	12654.32
856.51	12741.07
856.69	12577.07
856.87	12677.91
857.05	12554.87
857.23	12560.36
857.41	12427.65
857.59	12520.63
857.77	12423.22
857.94	12434.69
858.12	12452.71
858.30	12511.78
858.48	12429.61
858.66	12440.51
858.84	12607.46
859.02	12499.65
859.20	12491.95
859.38	12644.16
859.56	12604.92
859.74	12550.12
859.92	12592.88
860.09	12542.66
860.27	12536.93
860.45	12444.20
860.63	12369.49
860.81	12441.49
860.99	12355.40
861.17	12269.63
861.35	12197.46
861.53	12125.29
861.70	12023.54
861.88	12234.57
862.06	12270.20
862.24	12166.65
862.42	12123.97
862.60	12221.05
862.78	12164.28
862.96	12218.75
863.14	12117.91
863.31	12107.26
863.49	12152.24
863.67	12138.23
863.85	12105.13
864.03	12133.48
864.21	12099.65
864.39	12109.15
864.56	12009.45
864.74	12101.45
864.92	12125.78
865.10	12094.24
865.28	12077.85
865.46	12189.92
865.64	11967.02
865.81	12096.86
865.99	11924.18
866.17	12051.15
866.35	11947.36
866.53	11956.86
866.71	11954.98
866.88	11996.92
867.06	11866.67
867.24	11984.22
867.42	11937.36
867.60	12008.47
867.78	11912.79
867.95	12108.00
868.13	11958.25
868.31	12036.57
868.49	11940.31
868.67	11928.52
868.84	11921.23
869.02	11969.39
869.20	11725.19
869.38	11835.05
869.56	11724.62
869.73	11645.24
869.91	11738.63
870.09	11729.04
870.27	11703.65
870.45	11749.36
870.62	11661.46
870.80	11871.58
870.98	11780.16
871.16	11756.08
871.34	11705.12
871.51	11710.86
871.69	11611.82
871.87	11588.47
872.05	11580.61
872.23	11584.70
872.40	11490.01
872.58	11649.26
872.76	11599.86
872.94	11618.29
873.11	11609.53
873.29	11495.49
873.47	11490.58
873.65	11432.91
873.83	11404.97
874.00	11419.97
874.18	11441.84
874.36	11442.17
874.54	11483.62
874.71	11418.33
874.89	11280.38
875.07	11405.47
875.25	11244.50
875.42	11283.98
875.60	11193.62
875.78	11277.59
875.96	11140.46
876.13	11229.34
876.31	11070.34
876.49	11079.51
876.66	11036.34
876.84	11228.60
877.02	11122.03
877.20	11116.54
877.37	11097.12
877.55	11104.41
877.73	11121.21
877.91	11141.77
878.08	11226.39
878.26	11185.68
878.44	11125.80
878.61	11218.53
878.79	11086.80
878.97	11104.09
879.15	11154.38
879.32	11116.21
879.50	11093.93
879.68	11191.58
879.85	11061.98
880.03	11222.05
880.21	11084.43
880.38	11160.77
880.56	11037.73
880.74	11176.18
880.92	10968.35
881.09	11024.87
881.27	10961.79
881.45	11030.77
881.62	10999.97
881.80	10989.48
881.98	11031.10
882.15	11093.68
882.33	11041.58
882.51	11082.79
882.68	10961.47
882.86	11088.11
883.04	10947.21
883.21	10915.10
883.39	10954.50
883.57	10827.20
883.74	10874.88
883.92	10892.41
884.10	10844.57
884.27	10897.32
884.45	10864.23
884.63	10993.82
884.80	10925.75
884.98	10969.17
885.16	10940.49
885.33	10953.19
885.51	11031.18
885.69	10998.41
885.86	10980.39
886.04	11041.50
886.21	10916.82
886.39	11031.92
886.57	10897.32
886.74	11025.61
886.92	11050.59
887.10	11013.81
887.27	11019.14
887.45	11034.21
887.62	11037.32
887.80	10987.60
887.98	11072.63
888.15	11031.83
888.33	10996.61
888.51	11042.16
888.68	10921.82
888.86	10860.21
889.03	10819.26
889.21	10847.11
889.39	10898.55
889.56	10866.93
889.74	10815.57
889.91	10809.51
890.09	10812.13
890.27	10872.83
890.44	10847.52
890.62	10840.96
890.79	10875.86
890.97	10922.06
891.14	10922.96
891.32	11005.29
891.50	11005.37
891.67	11066.16
891.85	11046.33
892.02	11103.02
892.20	11141.11
892.38	11129.81
892.55	11036.01
892.73	11131.53
892.90	10964.91
893.08	11040.68
893.25	10990.22
893.43	11074.76
893.60	10974.41
893.78	11066.32
893.96	11046.66
894.13	11115.15
894.31	11140.13
894.48	11164.21
894.66	11184.12
894.83	11225.49
895.01	11288.16
895.18	11327.56
895.36	11259.16
895.53	11308.72
895.71	11186.58
895.89	11179.62
896.06	11095.49
896.24	11160.86
896.41	11093.27
896.59	11108.43
896.76	10937.55
896.94	11012.42
897.11	11037.00
897.29	11089.91
897.46	10992.43
897.64	11001.28
897.81	11002.59
897.99	10948.60
898.16	11015.53
898.34	10980.80
898.51	10990.71
898.69	10991.04
898.86	11070.91
899.04	11122.19
899.21	11061.90
899.39	11139.23
899.56	11052.56
899.74	11164.13
899.91	11006.36
900.09	10969.41
900.26	11013.32
900.44	10909.45
900.61	10953.03
900.79	11044.53
900.96	10975.97
901.14	10988.91
901.31	10932.88
901.49	10874.22
901.66	10889.79
901.84	10850.06
902.01	10770.35
902.19	10834.74
902.36	10792.47
902.54	10804.18
902.71	10802.95
902.88	10889.05
903.06	10762.73
903.23	10924.36
903.41	10848.83
903.58	10851.12
903.76	10802.30
903.93	10917.56
904.11	10953.44
904.28	10868.90
904.45	10839.82
904.63	10809.59
904.80	10727.10
904.98	10803.12
905.15	10677.04
905.33	10737.42
905.50	10637.97
905.68	10662.63
905.85	10580.46
906.02	10562.93
906.20	10639.03
906.37	10542.53
906.55	10503.95
906.72	10576.94
906.90	10489.86
907.07	10454.63
907.24	10520.42
907.42	10452.26
907.59	10511.98
907.77	10436.20
907.94	10508.29
908.11	10552.69
908.29	10532.05
908.46	10560.97
908.64	10523.53
908.81	10599.47
908.98	10554.41
909.16	10670.08
909.33	10594.06
909.51	10540.32
909.68	10501.49
909.85	10516.57
910.03	10499.20
910.20	10482.24
910.37	10469.22
910.55	10463.81
910.72	10418.02
910.90	10355.02
911.07	10324.22
911.24	10264.34
911.42	10312.10
911.59	10196.43
911.76	10193.97
911.94	10140.97
912.11	10083.71
912.29	10100.17
912.46	10041.76
912.63	10062.00
912.81	9910.37
912.98	10055.61
913.15	9949.03
913.33	10043.89
913.50	10009.65
913.67	9969.18
913.85	9930.52
914.02	9950.92
914.19	9888.58
914.37	9861.38
914.54	9886.94
914.71	9923.80
914.89	9885.79
915.06	9884.15
915.23	9847.29
915.41	9783.88
915.58	9706.63
915.75	9675.18
915.93	9681.65
916.10	9626.19
916.27	9598.67
916.45	9575.89
916.62	9518.06
916.79	9553.28
916.97	9444.49
917.14	9505.03
917.31	9432.70
917.49	9541.40
917.66	9522.24
917.83	9530.35
918.00	9476.20
918.18	9455.06
918.35	9442.36
918.52	9491.43
918.70	9402.80
918.87	9434.09
919.04	9432.62
919.21	9410.01
919.39	9321.94
919.56	9354.71
919.73	9262.39
919.91	9273.53
920.08	9221.10
920.25	9107.15
920.42	9200.79
920.60	9131.81
920.77	9129.84
920.94	9188.74
921.11	9087.90
921.29	9173.02
921.46	9057.43
921.63	9147.38
921.81	9097.90
921.98	9114.28
922.15	9064.31
922.32	9121.82
922.50	9066.11
922.67	9050.47
922.84	8979.44
923.01	8972.40
923.19	8951.18
923.36	8951.02
923.53	8849.35
923.70	8867.62
923.87	8873.03
924.05	8884.66
924.22	8775.30
924.39	8847.39
924.56	8739.50
924.74	8783.41
924.91	8785.79
925.08	8776.86
925.25	8790.46
925.43	8763.67
925.60	8687.07
925.77	8775.14
925.94	8686.34
926.11	8682.24
926.29	8605.56
926.46	8663.48
926.63	8632.93
926.80	8677.16
926.97	8609.33
927.15	8629.73
927.32	8548.71
927.49	8554.94
927.66	8533.64
927.83	8518.16
928.01	8441.32
928.18	8465.57
928.35	8391.10
928.52	8446.07
928.69	8362.76
928.87	8364.07
929.04	8332.45
929.21	8347.68
929.38	8252.99
929.55	8277.15
929.72	8214.16
929.90	8246.84
930.07	8216.12
930.24	8143.30
930.41	8155.34
930.58	8123.72
930.75	8128.06
930.93	8097.26
931.10	8105.37
931.27	8006.74
931.44	7997.97
931.61	7994.86
931.78	8041.23
931.95	7979.62
932.13	7979.79
932.30	8057.04
932.47	7946.36
932.64	7997.89
932.81	7975.20
932.98	8013.95
933.15	7939.40
933.33	7890.82
933.50	7962.01
933.67	7873.46
933.84	7856.09
934.01	7866.58
934.18	7795.14
934.35	7809.64
934.52	7771.63
934.70	7783.02
934.87	7698.07
935.04	7703.72
935.21	7663.01
935.38	7703.39
935.55	7658.50
935.72	7709.21
935.89	7603.04
936.06	7682.09
936.24	7604.52
936.41	7675.05
936.58	7607.06
936.75	7599.19
936.92	7614.51
937.09	7606.98
937.26	7552.58
937.43	7610.01
937.60	7620.90
937.77	7586.41
937.94	7603.53
938.12	7598.21
938.29	7569.21
938.46	7554.71
938.63	7475.41
938.80	7516.29
938.97	7453.21
939.14	7446.50
939.31	7415.12
939.48	7418.40
939.65	7341.97
939.82	7325.01
939.99	7339.10
940.16	7298.06
940.33	7311.90
940.50	7344.26
940.67	7313.79
940.85	7324.60
941.02	7322.47
941.19	7325.91
941.36	7310.43
941.53	7358.84
941.70	7329.52
941.87	7296.91
942.04	7267.34
942.21	7286.02
942.38	7273.48
942.55	7229.82
942.72	7261.52
942.89	7201.89
943.06	7156.18
943.23	7115.87
943.40	7098.59
943.57	7113.17
943.74	7089.74
943.91	7108.75
944.08	7078.76
944.25	7096.54
944.42	7050.26
944.59	7026.25
944.76	7044.36
944.93	7048.62
945.10	7030.84
945.27	6994.88
945.44	6884.45
945.61	6933.19
945.78	6848.00
945.95	6883.88
946.12	6840.54
946.29	6846.28
946.46	6847.01
946.63	6853.65
946.80	6819.00
946.97	6811.71
947.14	6772.47
947.31	6843.57
947.48	6766.08
947.65	6780.09
947.82	6759.77
947.99	6775.75
948.16	6722.58
948.33	6769.19
948.50	6704.31
948.67	6719.63
948.84	6673.59
949.01	6645.90
949.18	6700.13
949.35	6717.83
949.52	6646.15
949.68	6691.86
949.85	6644.18
950.02	6644.51
950.19	6620.67
950.36	6605.11
950.53	6546.70
950.70	6548.18
950.87	6514.10
951.04	6575.29
951.21	6516.39
951.38	6501.48
951.55	6508.69
951.72	6484.85
951.89	6468.63
952.06	6488.37
952.23	6477.97
952.39	6483.87
952.56	6399.57
952.73	6455.61
952.90	6425.87
953.07	6458.80
953.24	6388.93
953.41	6442.34
953.58	6361.73
953.75	6418.50
953.92	6373.52
954.09	6387.94
954.25	6341.66
954.42	6392.86
954.59	6316.02
954.76	6313.89
954.93	6294.47
955.10	6301.68
955.27	6245.90
955.44	6254.91
955.61	6225.58
955.77	6244.83
955.94	6218.29
956.11	6187.81
956.28	6187.49
956.45	6206.74
956.62	6155.87
956.79	6167.91
956.96	6128.34
957.12	6155.78
957.29	6126.13
957.46	6121.05
957.63	6091.97
957.80	6099.18
957.97	6109.50
958.14	6153.41
958.30	6089.51
958.47	6100.08
958.64	6103.68
958.81	6146.77
958.98	6095.90
959.15	6100.08
959.32	6127.44
959.48	6064.53
959.65	6031.27
959.82	6039.46
959.99	5968.11
960.16	5985.39
960.33	5952.38
960.49	5935.10
960.66	5896.92
960.83	5894.14
961.00	5936.98
961.17	5912.16
961.33	5898.56
961.50	5913.47
961.67	5883.81
961.84	5885.86
962.01	5887.17
962.18	5905.44
962.34	5868.25
962.51	5854.98
962.68	5809.76
962.85	5873.08
963.02	5807.71
963.18	5861.04
963.35	5845.89
963.52	5841.13
963.69	5860.55
963.86	5854.57
964.02	5795.18
964.19	5823.19
964.36	5770.03
964.53	5792.88
964.69	5701.63
964.86	5769.87
965.03	5689.58
965.20	5743.57
965.37	5660.42
965.53	5670.99
965.70	5649.53
965.87	5679.43
966.04	5644.78
966.20	5629.87
966.37	5646.00
966.54	5618.23
966.71	5660.01
966.87	5609.47
967.04	5621.92
967.21	5604.23
967.38	5592.59
967.54	5599.31
967.71	5585.96
967.88	5590.95
968.05	5565.40
968.21	5584.89
968.38	5534.76
968.55	5551.14
968.72	5551.39
968.88	5543.93
969.05	5534.43
969.22	5525.50
969.39	5496.42
969.55	5516.57
969.72	5474.30
969.89	5469.88
970.05	5470.86
970.22	5511.99
970.39	5465.46
970.56	5474.79
970.72	5446.53
970.89	5446.04
971.06	5414.83
971.22	5423.84
971.39	5377.23
971.56	5421.71
971.73	5369.94
971.89	5421.96
972.06	5380.26
972.23	5382.06
972.39	5318.08
972.56	5364.04
972.73	5296.70
972.89	5346.02
973.06	5350.44
973.23	5354.05
973.39	5324.31
973.56	5341.59
973.73	5300.31
973.89	5325.37
974.06	5290.15
974.23	5302.44
974.39	5279.42
974.56	5269.10
974.73	5237.39
974.89	5225.19
975.06	5212.98
975.23	5272.62
975.39	5178.58
975.56	5234.12
975.73	5214.95
975.89	5198.24
976.06	5211.18
976.23	5191.52
976.39	5166.12
976.56	5189.31
976.73	5169.24
976.89	5165.80
977.06	5142.45
977.23	5129.59
977.39	5137.29
977.56	5167.68
977.72	5098.13
977.89	5127.79
978.06	5114.60
978.22	5101.16
978.39	5094.36
978.56	5111.40
978.72	5084.29
978.89	5111.07
979.05	5090.35
979.22	5088.14
979.39	5042.92
979.55	5040.46
979.72	4998.68
979.88	5038.49
980.05	4980.17
980.22	5005.97
980.38	4974.27
980.55	4965.26
980.71	4917.42
980.88	4948.88
981.05	4940.52
981.21	4917.42
981.38	4922.83
981.54	4914.47
981.71	4899.72
981.88	4910.13
982.04	4920.20
982.21	4917.17
982.37	4912.83
982.54	4922.50
982.70	4905.87
982.87	4921.11
983.04	4876.30
983.20	4914.72
983.37	4861.06
983.53	4896.28
983.70	4858.11
983.86	4850.98
984.03	4825.18
984.20	4810.60
984.36	4818.22
984.53	4816.33
984.69	4789.46
984.86	4772.42
985.02	4789.63
985.19	4803.22
985.35	4800.93
985.52	4782.83
985.68	4813.87
985.85	4777.75
986.02	4783.15
986.18	4798.64
986.35	4755.55
986.51	4789.87
986.68	4759.48
986.84	4773.73
987.01	4726.63
987.17	4777.17
987.34	4738.92
987.50	4737.12
987.67	4731.79
987.83	4725.40
988.00	4735.40
988.16	4730.81
988.33	4734.25
988.49	4720.08
988.66	4689.19
988.82	4706.07
988.99	4663.96
989.15	4669.29
989.32	4636.11
989.48	4637.67
989.65	4602.85
989.81	4604.00
989.98	4582.29
990.14	4590.56
990.31	4596.95
990.47	4593.02
990.64	4584.34
990.80	4577.46
990.97	4544.44
991.13	4559.76
991.30	4573.36
991.46	4529.53
991.63	4537.73
991.79	4575.65
991.95	4526.01
992.12	4568.04
992.28	4537.97
992.45	4552.22
992.61	4572.46
992.78	4550.83
992.94	4545.02
993.11	4565.91
993.27	4535.92
993.44	4527.16
993.60	4515.53
993.76	4540.76
993.93	4534.37
994.09	4536.25
994.26	4502.58
994.42	4501.60
994.59	4471.70
994.75	4494.72
994.91	4458.02
995.08	4463.26
995.24	4445.16
995.41	4438.36
995.57	4442.54
995.74	4413.45
995.90	4403.46
996.06	4406.57
996.23	4391.66
996.39	4404.36
996.56	4385.27
996.72	4402.31
996.88	4383.14
997.05	4372.17
997.21	4371.59
997.38	4385.36
997.54	4343.66
997.70	4359.14
997.87	4358.90
998.03	4350.05
998.20	4318.59
998.36	4335.14
998.52	4300.57
998.69	4347.02
998.85	4287.38
999.02	4334.98
999.18	4326.70
999.34	4339.48
999.51	4316.79
999.67	4322.44
999.83	4314.82
1000.00	4311.47
1000.16	4277.63
1000.33	4295.00
1000.49	4289.68
1000.65	4287.30
1000.82	4311.30
1000.98	4292.46
1001.14	4276.81
1001.31	4280.58
1001.47	4268.70
1001.63	4267.31
1001.80	4248.55
1001.96	4247.98
1002.12	4260.92
1002.29	4242.82
1002.45	4230.20
1002.61	4259.28
1002.78	4248.14
1002.94	4239.62
1003.10	4219.80
1003.27	4226.68
1003.43	4192.85
1003.59	4211.85
1003.76	4191.21
1003.92	4189.00
1004.08	4176.05
1004.25	4193.09
1004.41	4174.33
1004.57	4168.85
1004.74	4146.89
1004.90	4179.90
1005.06	4134.77
1005.23	4131.98
1005.39	4139.76
1005.55	4154.84
1005.71	4138.21
1005.88	4134.44
1006.04	4144.52
1006.20	4125.26
1006.37	4102.74
1006.53	4093.89
1006.69	4092.33
1006.85	4111.17
1007.02	4079.96
1007.18	4100.93
1007.34	4075.38
1007.51	4122.40
1007.67	4068.66
1007.83	4084.55
1007.99	4069.15
1008.16	4065.30
1008.32	4050.72
1008.48	4077.59
1008.64	4056.29
1008.81	4071.69
1008.97	4036.79
1009.13	4059.65
1009.29	4033.68
1009.46	4059.16
1009.62	4049.90
1009.78	4024.34
1009.95	4033.76
1010.11	4035.97
1010.27	4015.00
1010.43	4030.65
1010.59	4018.44
1010.76	4017.71
1010.92	3981.33
1011.08	4008.12
1011.24	3992.88
1011.41	4024.01
1011.57	3993.87
1011.73	3998.54
1011.89	3972.32
1012.06	4000.17
1012.22	3976.99
1012.38	3986.33
1012.54	3960.77
1012.70	3967.08
1012.87	3947.66
1013.03	3956.76
1013.19	3946.44
1013.35	3975.03
1013.51	3929.97
1013.68	3937.18
1013.84	3931.28
1014.00	3937.67
1014.16	3908.84
1014.32	3897.45
1014.49	3913.09
1014.65	3923.91
1014.81	3892.53
1014.97	3922.52
1015.13	3889.17
1015.30	3888.93
1015.46	3889.58
1015.62	3894.50
1015.78	3880.90
1015.94	3891.22
1016.10	3878.44
1016.27	3874.18
1016.43	3871.15
1016.59	3890.24
1016.75	3874.59
1016.91	3861.98
1017.07	3852.23
1017.24	3859.77
1017.40	3838.06
1017.56	3862.14
1017.72	3846.74
1017.88	3845.35
1018.04	3851.16
1018.21	3862.96
1018.37	3832.16
1018.53	3839.45
1018.69	3837.24
1018.85	3820.69
1019.01	3826.75
1019.17	3819.13
1019.34	3826.42
1019.50	3800.21
1019.66	3782.19
1019.82	3797.43
1019.98	3795.05
1020.14	3807.42
1020.30	3802.91
1020.46	3764.99
1020.63	3762.36
1020.79	3775.55
1020.95	3762.53
1021.11	3778.67
1021.27	3751.63
1021.43	3748.85
1021.59	3765.64
1021.75	3746.80
1021.91	3733.61
1022.07	3731.64
1022.24	3742.38
1022.40	3745.82
1022.56	3717.88
1022.72	3768.02
1022.88	3732.55
1023.04	3755.16
1023.20	3724.11
1023.36	3734.68
1023.52	3743.93
1023.68	3731.07
1023.84	3706.25
1024.01	3721.16
1024.17	3709.44
1024.33	3727.79
1024.49	3697.65
1024.65	3717.72
1024.81	3702.89
1024.97	3721.49
1025.13	3705.76
1025.29	3726.40
1025.45	3701.91
1025.61	3722.31
1025.77	3711.25
1025.93	3713.30
1026.09	3686.67
1026.25	3720.01
1026.41	3695.85
1026.57	3698.71
1026.73	3692.73
1026.90	3698.14
1027.06	3677.25
1027.22	3685.77
1027.38	3692.49
1027.54	3688.64
1027.70	3658.66
1027.86	3673.81
1028.02	3660.70
1028.18	3670.04
1028.34	3641.45
1028.50	3667.75
1028.66	3634.24
1028.82	3655.62
1028.98	3632.36
1029.14	3622.12
1029.30	3640.06
1029.46	3636.95
1029.62	3618.92
1029.78	3618.11
1029.94	3625.64
1030.10	3606.96
1030.26	3597.95
1030.42	3636.37
1030.58	3594.59
1030.74	3638.75
1030.90	3595.66
1031.06	3600.41
1031.22	3596.15
1031.38	3592.96
1031.54	3598.28
1031.70	3599.59
1031.86	3582.55
1032.02	3584.44
1032.18	3571.41
1032.34	3578.46
1032.50	3576.08
1032.66	3588.53
1032.82	3551.51
1032.98	3584.76
1033.14	3564.86
1033.30	3570.35
1033.45	3557.73
1033.61	3581.98
1033.77	3569.04
1033.93	3584.68
1034.09	3556.67
1034.25	3567.07
1034.41	3577.47
1034.57	3562.56
1034.73	3568.54
1034.89	3580.10
1035.05	3552.65
1035.21	3559.53
1035.37	3549.46
1035.53	3546.67
1035.69	3526.44
1035.85	3541.68
1036.01	3527.09
1036.16	3541.59
1036.32	3529.80
1036.48	3525.46
1036.64	3483.27
1036.80	3523.98
1036.96	3514.31
1037.12	3509.32
1037.28	3507.76
1037.44	3509.81
1037.60	3500.63
1037.76	3495.31
1037.91	3487.12
1038.07	3505.96
1038.23	3476.47
1038.39	3489.74
1038.55	3490.15
1038.71	3494.49
1038.87	3473.68
1039.03	3526.03
1039.19	3503.66
1039.35	3479.17
1039.50	3489.98
1039.66	3489.00
1039.82	3488.67
1039.98	3503.50
1040.14	3481.38
1040.30	3477.70
1040.46	3469.75
1040.62	3474.50
1040.77	3480.24
1040.93	3498.18
1041.09	3467.78
1041.25	3459.26
1041.41	3457.38
1041.57	3466.72
1041.73	3466.72
1041.88	3466.72

